File: examples/data/28ID-2-C-XRD/far-field-detector/NIST-CeO2/img.xy
1.07717 25.3698
1.08883 25.4102
1.10049 25.3689
1.11216 25.273
1.12382 25.247
1.13548 25.2776
1.14714 25.2736
1.15881 25.2108
1.17047 25.2009
1.18213 25.2045
1.19379 25.1031
1.20546 25.0892
1.21712 25.0894
1.22878 25.1397
1.24044 25.1267
1.25211 25.1988
1.26377 25.1973
1.27543 25.176
1.2871 25.1641
1.29876 25.1205
1.31042 25.0262
1.32208 25.0707
1.33375 25.0506
1.34541 24.9248
1.35707 24.9846
1.36873 25.0096
1.3804 24.9791
1.39206 24.89
1.40372 24.9307
1.41538 24.8326
1.42705 24.906
1.43871 24.8253
1.45037 24.8014
1.46204 24.7115
1.4737 24.6852
1.48536 24.691
1.49702 24.6188
1.50869 24.5439
1.52035 24.5759
1.53201 24.5039
1.54368 24.3775
1.55534 24.4111
1.567 24.3465
1.57867 24.3258
1.59033 24.368
1.60199 24.3569
1.61365 24.3607
1.62532 24.2173
1.63698 24.2066
1.64864 24.21
1.66031 24.1688
1.67197 24.1786
1.68363 24.2976
1.6953 24.2591
1.70696 24.1985
1.71862 24.1302
1.73029 24.2228
1.74195 24.1864
1.75361 24.2082
1.76528 24.1789
1.77694 24.1938
1.7886 24.2146
1.80027 24.1751
1.81193 24.1123
1.82359 24.0746
1.83526 24.0729
1.84692 24.0862
1.85858 24.028
1.87025 24.0962
1.88191 24.0621
1.89357 24.0516
1.90524 23.9718
1.9169 24.1072
1.92856 24.1179
1.94023 24.1226
1.95189 24.0627
1.96355 24.0231
1.97522 24.0766
1.98688 23.9959
1.99855 23.9937
2.01021 24.025
2.02187 23.9712
2.03354 23.889
2.0452 23.9338
2.05686 23.9704
2.06853 23.8763
2.08019 23.8366
2.09186 23.8105
2.10352 23.8286
2.11518 23.8124
2.12685 23.8766
2.13851 23.8131
2.15017 23.7911
2.16184 23.7403
2.1735 23.6905
2.18517 23.5962
2.19683 23.6869
2.20849 23.6574
2.22016 23.5768
2.23182 23.4903
2.24349 23.4558
2.25515 23.4583
2.26682 23.4349
2.27848 23.4141
2.29014 23.3597
2.30181 23.2928
2.31347 23.2229
2.32514 23.1933
2.3368 23.1468
2.34847 23.047
2.36013 23.1021
2.37179 23.1176
2.38346 22.9997
2.39512 22.9944
2.40679 22.9829
2.41845 22.9774
2.43012 22.8634
2.44178 22.81
2.45345 22.8726
2.46511 22.8193
2.47677 22.7566
2.48844 22.8068
2.5001 22.8447
2.51177 22.7828
2.52343 22.7049
2.5351 22.6663
2.54676 22.6629
2.55843 22.5702
2.57009 22.5555
2.58176 22.5705
2.59342 22.4905
2.60509 22.4254
2.61675 22.4168
2.62842 22.3964
2.64008 22.375
2.65175 22.3212
2.66341 22.2868
2.67508 22.3211
2.68674 22.3287
2.69841 22.2141
2.71007 22.2309
2.72174 22.1998
2.7334 22.1791
2.74507 22.1293
2.75673 22.0952
2.7684 22.044
2.78006 22.0138
2.79173 22.0867
2.80339 22.0715
2.81506 21.9498
2.82673 21.9296
2.83839 21.9936
2.85006 21.9484
2.86172 21.9556
2.87339 21.8785
2.88505 21.9321
2.89672 21.8943
2.90838 21.9154
2.92005 21.874
2.93172 21.8531
2.94338 21.8671
2.95505 21.927
2.96671 21.9093
2.97838 21.9087
2.99004 21.9249
3.00171 21.886
3.01338 21.8679
3.02504 21.851
3.03671 21.8883
3.04837 21.8681
3.06004 21.8407
3.07171 21.9042
3.08337 21.8719
3.09504 21.8598
3.1067 21.9358
3.11837 21.9224
3.13004 21.9796
3.1417 22.0187
3.15337 22.0921
3.16504 22.087
3.1767 22.1944
3.18837 22.3286
3.20004 22.4499
3.2117 22.6282
3.22337 22.9297
3.23503 23.3427
3.2467 23.9245
3.25837 24.7966
3.27003 26.2338
3.2817 29.189
3.29337 42.2604
3.30503 270.584
3.3167 1280.08
3.32837 1624.21
3.34003 588.093
3.3517 70.689
3.36337 31.3943
3.37504 26.9705
3.3867 24.9149
3.39837 23.7752
3.41004 23.0142
3.4217 22.5436
3.43337 22.1155
3.44504 21.7315
3.45671 21.5854
3.46837 21.3529
3.48004 21.1561
3.49171 21.0379
3.50337 20.9455
3.51504 20.8316
3.52671 20.8335
3.53838 20.813
3.55004 20.6009
3.56171 20.4534
3.57338 20.461
3.58505 20.3707
3.59671 20.3235
3.60838 20.2205
3.62005 20.1435
3.63172 20.2023
3.64339 20.171
3.65505 20.1143
3.66672 20.0669
3.67839 20.046
3.69006 20.0164
3.70172 19.9793
3.71339 20.022
3.72506 20.0268
3.73673 20.1552
3.7484 20.1861
3.76007 20.2856
3.77173 20.4852
3.7834 20.8764
3.79507 21.6109
3.80674 24.466
3.81841 76.4386
3.83007 335.28
3.84174 472.398
3.85341 218.159
3.86508 38.8867
3.87675 22.4248
3.88842 20.9778
3.90009 20.3923
3.91175 19.9485
3.92342 19.7208
3.93509 19.5506
3.94676 19.4305
3.95843 19.3002
3.9701 19.2305
3.98177 19.1234
3.99344 19.0614
4.00511 19.004
4.01677 18.98
4.02844 18.9178
4.04011 18.87
4.05178 18.8686
4.06345 18.7786
4.07512 18.7138
4.08679 18.7215
4.09846 18.7039
4.11013 18.67
4.1218 18.5961
4.13347 18.5315
4.14514 18.5094
4.15681 18.5593
4.16848 18.43
4.18015 18.4203
4.19182 18.3331
4.20349 18.3557
4.21515 18.3563
4.22682 18.3559
4.23849 18.3104
4.25016 18.2773
4.26183 18.2762
4.2735 18.317
4.28517 18.3695
4.29684 18.3502
4.30851 18.3184
4.32018 18.2943
4.33185 18.2745
4.34353 18.2332
4.3552 18.144
4.36687 18.134
4.37854 18.1286
4.39021 18.1262
4.40188 18.0504
4.41355 18.0263
4.42522 17.9687
4.43689 17.9685
4.44856 17.9236
4.46023 17.9201
4.4719 18.0036
4.48357 18.0015
4.49524 17.9789
4.50691 17.9094
4.51858 17.9456
4.53026 17.9512
4.54193 17.905
4.5536 17.9324
4.56527 17.909
4.57694 17.95
4.58861 17.9433
4.60028 17.8538
4.61195 17.849
4.62363 17.8272
4.6353 17.8144
4.64697 17.8691
4.65864 17.8696
4.67031 17.7997
4.68198 17.7724
4.69365 17.8063
4.70533 17.7437
4.717 17.7568
4.72867 17.7427
4.74034 17.7687
4.75201 17.6994
4.76369 17.7866
4.77536 17.7874
4.78703 17.7848
4.7987 17.7381
4.81037 17.7684
4.82205 17.7793
4.83372 17.772
4.84539 17.7986
4.85706 17.8272
4.86874 17.8096
4.88041 17.7659
4.89208 17.8075
4.90375 17.8331
4.91543 17.7684
4.9271 17.8377
4.93877 17.8772
4.95044 17.8898
4.96212 17.8486
4.97379 17.8168
4.98546 17.8066
4.99714 17.878
5.00881 17.9076
5.02048 17.9046
5.03215 17.9032
5.04383 17.8619
5.0555 17.8882
5.06717 17.9325
5.07885 18.0005
5.09052 17.9741
5.10219 17.9797
5.11387 17.9438
5.12554 18.0107
5.13721 17.9897
5.14889 18.0255
5.16056 18.0681
5.17224 18.1181
5.18391 18.1693
5.19558 18.2149
5.20726 18.2406
5.21893 18.3199
5.23061 18.3378
5.24228 18.4115
5.25395 18.3681
5.26563 18.4517
5.2773 18.551
5.28898 18.687
5.30065 18.7684
5.31233 18.9339
5.324 19.0995
5.33567 19.3377
5.34735 19.6614
5.35902 20.0915
5.3707 20.8496
5.38237 22.1459
5.39405 26.0891
5.40572 80.7541
5.4174 455.334
5.42907 879.617
5.44075 684.211
5.45242 168.141
5.4641 32.9352
5.47577 23.1556
5.48745 21.3211
5.49912 20.3918
5.5108 19.7922
5.52247 19.4218
5.53415 19.1802
5.54583 18.9391
5.5575 18.7575
5.56918 18.6353
5.58085 18.5561
5.59253 18.4796
5.6042 18.3478
5.61588 18.3298
5.62756 18.2868
5.63923 18.171
5.65091 18.0955
5.66258 18.1304
5.67426 18.0718
5.68594 17.9807
5.69761 17.9504
5.70929 17.9248
5.72097 17.9416
5.73264 17.8641
5.74432 17.8529
5.75599 17.8534
5.76767 17.8842
5.77935 17.8797
5.79103 17.8412
5.8027 17.7915
5.81438 17.7994
5.82606 17.7948
5.83773 17.8187
5.84941 17.7559
5.86109 17.7924
5.87276 17.7571
5.88444 17.7111
5.89612 17.7569
5.9078 17.7654
5.91947 17.7396
5.93115 17.779
5.94283 17.7733
5.95451 17.802
5.96618 17.816
5.97786 17.7889
5.98954 17.738
6.00122 17.7255
6.0129 17.7497
6.02457 17.8267
6.03625 17.7716
6.04793 17.7819
6.05961 17.8134
6.07129 17.8705
6.08296 17.9628
6.09464 17.8931
6.10632 17.9262
6.118 17.9918
6.12968 17.9881
6.14136 18.0047
6.15304 18.0274
6.16471 18.0644
6.17639 18.0625
6.18807 18.1538
6.19975 18.1796
6.21143 18.2046
6.22311 18.3027
6.23479 18.4057
6.24647 18.5285
6.25815 18.6963
6.26983 18.892
6.28151 19.1368
6.29319 19.4933
6.30486 19.9791
6.31654 20.9045
6.32822 22.979
6.3399 42.1562
6.35158 242.18
6.36326 629.005
6.37494 677.417
6.38662 303.347
6.3983 52.7139
6.40998 23.8926
6.42166 21.1841
6.43334 20.0893
6.44502 19.5083
6.4567 19.1833
6.46839 18.8658
6.48007 18.6788
6.49175 18.5054
6.50343 18.3989
6.51511 18.2692
6.52679 18.2305
6.53847 18.2161
6.55015 18.1755
6.56183 18.1583
6.57351 18.1819
6.58519 18.2381
6.59687 18.3532
6.60856 18.5898
6.62024 20.315
6.63192 43.6303
6.6436 114.852
6.65528 146.01
6.66696 94.7811
6.67865 31.3063
6.69033 19.2014
6.70201 18.2622
6.71369 18.0229
6.72537 17.8762
6.73705 17.7511
6.74874 17.6336
6.76042 17.6206
6.7721 17.585
6.78378 17.5421
6.79547 17.5005
6.80715 17.4687
6.81883 17.4458
6.83051 17.4253
6.8422 17.3828
6.85388 17.387
6.86556 17.3667
6.87724 17.3241
6.88893 17.3212
6.90061 17.293
6.91229 17.2751
6.92398 17.2795
6.93566 17.2606
6.94734 17.2605
6.95903 17.2531
6.97071 17.2371
6.98239 17.1984
6.99408 17.242
7.00576 17.2164
7.01745 17.1909
7.02913 17.1603
7.04081 17.1099
7.0525 17.0886
7.06418 17.1367
7.07586 17.1978
7.08755 17.1448
7.09923 17.1326
7.11092 17.07
7.1226 17.0651
7.13429 17.0691
7.14597 17.0384
7.15766 17.0365
7.16934 16.9417
7.18103 17.0156
7.19271 17.0301
7.2044 17.0056
7.21608 17.0088
7.22777 16.9923
7.23945 16.9929
7.25114 17.0136
7.26282 17.0237
7.27451 16.9715
7.28619 16.9521
7.29788 16.9747
7.30956 17.0047
7.32125 17.0069
7.33293 16.906
7.34462 16.9327
7.35631 16.9094
7.36799 16.9339
7.37968 16.9622
7.39136 16.9517
7.40305 16.9416
7.41474 16.9372
7.42642 16.9563
7.43811 16.9873
7.4498 16.987
7.46148 17.0167
7.47317 16.985
7.48486 16.9964
7.49654 17.0019
7.50823 17.0086
7.51992 17.0273
7.5316 17.0375
7.54329 17.0744
7.55498 17.0806
7.56667 17.0911
7.57835 17.1699
7.59004 17.1732
7.60173 17.2353
7.61342 17.2997
7.6251 17.4918
7.63679 17.7252
7.64848 18.8591
7.66017 34.817
7.67186 96.4238
7.68354 137.659
7.69523 112.633
7.70692 44.8774
7.71861 19.8241
7.7303 17.7519
7.74199 17.3953
7.75367 17.2136
7.76536 17.0815
7.77705 17.0374
7.78874 17.0094
7.80043 16.9276
7.81212 16.9611
7.82381 16.9302
7.8355 16.8723
7.84719 16.8227
7.85888 16.8435
7.87056 16.8564
7.88225 16.8805
7.89394 16.8684
7.90563 16.8727
7.91732 16.8559
7.92901 16.8512
7.9407 16.8119
7.95239 16.8241
7.96408 16.8351
7.97577 16.8146
7.98746 16.84
7.99915 16.8367
8.01084 16.8159
8.02253 16.8265
8.03423 16.7779
8.04592 16.8053
8.05761 16.8173
8.0693 16.7863
8.08099 16.8271
8.09268 16.8226
8.10437 16.8818
8.11606 16.8657
8.12775 16.8962
8.13944 16.9244
8.15114 16.9413
8.16283 16.9764
8.17452 16.9715
8.18621 16.9958
8.1979 17.0602
8.20959 17.1122
8.22129 17.1942
8.23298 17.2362
8.24467 17.2077
8.25636 17.2761
8.26805 17.409
8.27975 17.4471
8.29144 17.5647
8.30313 17.7451
8.31482 18.0468
8.32652 18.541
8.33821 21.0968
8.3499 51.9869
8.3616 165.441
8.37329 259.385
8.38498 233.954
8.39668 102.74
8.40837 27.8795
8.42006 19.3876
8.43176 18.4306
8.44345 18.0146
8.45514 17.7916
8.46684 17.58
8.47853 17.4924
8.49022 17.4846
8.50192 17.4171
8.51361 17.4787
8.52531 17.5707
8.537 17.7195
8.5487 18.1704
8.56039 22.5678
8.57208 62.8848
8.58378 143.211
8.59547 168.911
8.60717 122.598
8.61886 38.951
8.63056 19.3643
8.64225 17.83
8.65395 17.4441
8.66564 17.2108
8.67734 17.0416
8.68904 16.9298
8.70073 16.9017
8.71243 16.8346
8.72412 16.8279
8.73582 16.7529
8.74751 16.7288
8.75921 16.6516
8.77091 16.6834
8.7826 16.65
8.7943 16.594
8.80599 16.5162
8.81769 16.5285
8.82939 16.5025
8.84108 16.5232
8.85278 16.4804
8.86448 16.4684
8.87617 16.4735
8.88787 16.4278
8.89957 16.3898
8.91127 16.3739
8.92296 16.352
8.93466 16.3595
8.94636 16.3824
8.95806 16.3574
8.96975 16.3323
8.98145 16.3252
8.99315 16.3312
9.00485 16.3598
9.01655 16.3855
9.02824 16.3303
9.03994 16.3883
9.05164 16.327
9.06334 16.3114
9.07504 16.2801
9.08674 16.3359
9.09843 16.3202
9.11013 16.3369
9.12183 16.3258
9.13353 16.3249
9.14523 16.3478
9.15693 16.3263
9.16863 16.3417
9.18033 16.3277
9.19203 16.3451
9.20373 16.3611
9.21543 16.3006
9.22713 16.386
9.23883 16.4528
9.25053 16.4028
9.26223 16.4358
9.27393 16.4592
9.28563 16.519
9.29733 16.542
9.30903 16.6768
9.32073 16.7367
9.33243 16.8075
9.34413 16.9931
9.35583 17.3186
9.36753 17.8646
9.37923 21.6788
9.39093 62.4162
9.40263 162.695
9.41434 211.471
9.42604 186.43
9.43774 76.8764
9.44944 22.7783
9.46114 18.1829
9.47284 17.3709
9.48455 17.0447
9.49625 16.8452
9.50795 16.6706
9.51965 16.5674
9.53135 16.5147
9.54306 16.4209
9.55476 16.3517
9.56646 16.3626
9.57816 16.3132
9.58987 16.3311
9.60157 16.3
9.61327 16.2652
9.62498 16.2727
9.63668 16.3046
9.64838 16.2947
9.66009 16.2161
9.67179 16.2014
9.68349 16.1694
9.6952 16.1698
9.7069 16.199
9.7186 16.1758
9.73031 16.1887
9.74201 16.1866
9.75372 16.1918
9.76542 16.181
9.77713 16.1843
9.78883 16.1858
9.80053 16.1924
9.81224 16.1426
9.82394 16.2203
9.83565 16.2526
9.84735 16.2459
9.85906 16.2888
9.87076 16.3535
9.88247 16.3786
9.89418 16.4788
9.90588 16.5949
9.91759 16.7234
9.92929 16.9686
9.941 17.4879
9.9527 21.6477
9.96441 61.0377
9.97612 140.632
9.98782 171.105
9.99953 151.343
10.0112 65.9293
10.0229 21.388
10.0346 17.6526
10.0464 17.0624
10.0581 16.757
10.0698 16.5589
10.0815 16.394
10.0932 16.3449
10.1049 16.2294
10.1166 16.1943
10.1283 16.1536
10.14 16.1273
10.1517 16.0702
10.1634 16.0268
10.1751 15.9695
10.1868 15.9665
10.1986 15.9177
10.2103 15.936
10.222 15.9824
10.2337 15.9245
10.2454 15.8978
10.2571 15.8928
10.2688 15.8459
10.2805 15.7985
10.2922 15.8121
10.3039 15.8221
10.3156 15.8411
10.3274 15.8442
10.3391 15.734
10.3508 15.7827
10.3625 15.7711
10.3742 15.8038
10.3859 15.779
10.3976 15.7778
10.4093 15.8205
10.421 15.793
10.4327 15.7731
10.4445 15.7598
10.4562 15.7512
10.4679 15.7968
10.4796 15.7592
10.4913 15.8066
10.503 15.7756
10.5147 15.8109
10.5264 15.8062
10.5381 15.7442
10.5498 15.778
10.5616 15.8028
10.5733 15.8311
10.585 15.8417
10.5967 15.8378
10.6084 15.8745
10.6201 15.8145
10.6318 15.842
10.6435 15.8331
10.6553 15.9254
10.667 15.9025
10.6787 15.8862
10.6904 15.924
10.7021 15.9647
10.7138 15.9612
10.7255 15.9454
10.7372 16.0065
10.749 15.9915
10.7607 15.9891
10.7724 16.0727
10.7841 16.0861
10.7958 16.1089
10.8075 16.1452
10.8192 16.3051
10.831 16.5994
10.8427 19.1932
10.8544 37.1886
10.8661 62.2941
10.8778 69.096
10.8895 62.1344
10.9012 33.6969
10.913 18.1388
10.9247 16.6536
10.9364 16.422
10.9481 16.256
10.9598 16.2202
10.9715 16.2005
10.9833 16.1822
10.995 16.163
11.0067 16.1905
11.0184 16.1905
11.0301 16.1888
11.0418 16.2181
11.0535 16.1372
11.0653 16.176
11.077 16.2125
11.0887 16.1595
11.1004 16.2089
11.1121 16.1977
11.1238 16.2718
11.1356 16.2784
11.1473 16.2736
11.159 16.2378
11.1707 16.2914
11.1824 16.3629
11.1942 16.3886
11.2059 16.4492
11.2176 16.4926
11.2293 16.5111
11.241 16.5275
11.2527 16.6091
11.2645 16.6155
11.2762 16.6353
11.2879 16.8409
11.2996 17.0009
11.3113 17.1333
11.3231 17.4823
11.3348 18.8811
11.3465 34.7571
11.3582 97.5843
11.3699 147.411
11.3817 153.599
11.3934 124.602
11.4051 48.0273
11.4168 20.2528
11.4285 18.028
11.4403 17.5429
11.452 17.3287
11.4637 17.2352
11.4754 17.231
11.4871 17.3208
11.4989 18.1804
11.5106 28.4543
11.5223 57.9337
11.534 75.4034
11.5457 75.9274
11.5575 59.4154
11.5692 26.6724
11.5809 17.8466
11.5926 17.0528
11.6043 16.751
11.6161 16.664
11.6278 16.6163
11.6395 16.5365
11.6512 16.5264
11.663 16.4632
11.6747 16.479
11.6864 16.4746
11.6981 16.4288
11.7098 16.3941
11.7216 16.3053
11.7333 16.3657
11.745 16.3214
11.7567 16.299
11.7685 16.3332
11.7802 16.3206
11.7919 16.3249
11.8036 16.3364
11.8154 16.2967
11.8271 16.2941
11.8388 16.3039
11.8505 16.2826
11.8623 16.2212
11.874 16.2844
11.8857 16.3011
11.8974 16.2867
11.9092 16.369
11.9209 16.2855
11.9326 16.3319
11.9443 16.3191
11.9561 16.303
11.9678 16.3152
11.9795 16.3288
11.9912 16.384
12.003 16.369
12.0147 16.3723
12.0264 16.4423
12.0381 16.4152
12.0499 16.4741
12.0616 16.4895
12.0733 16.5644
12.0851 16.6495
12.0968 16.6892
12.1085 16.8304
12.1202 17.2731
12.132 21.6181
12.1437 48.0727
12.1554 77.3717
12.1671 83.9692
12.1789 78.4781
12.1906 47.852
12.2023 20.7249
12.2141 17.4108
12.2258 17.003
12.2375 16.7659
12.2492 16.6971
12.261 16.6871
12.2727 16.6139
12.2844 16.5964
12.2962 16.5149
12.3079 16.533
12.3196 16.5585
12.3313 16.4442
12.3431 16.4268
12.3548 16.4699
12.3665 16.4598
12.3783 16.4368
12.39 16.4383
12.4017 16.4846
12.4135 16.4047
12.4252 16.4482
12.4369 16.4698
12.4487 16.5036
12.4604 16.4696
12.4721 16.4979
12.4838 16.5604
12.4956 16.5463
12.5073 16.5945
12.519 16.6392
12.5308 16.6812
12.5425 16.6693
12.5542 16.8072
12.566 16.9935
12.5777 18.3139
12.5894 29.9575
12.6012 51.8755
12.6129 60.7354
12.6246 60.3847
12.6364 48.8765
12.6481 24.9423
12.6598 17.6962
12.6716 17.0363
12.6833 16.998
12.695 16.9916
12.7068 16.9872
12.7185 17.2739
12.7302 20.477
12.742 34.925
12.7537 46.8658
12.7654 49.4001
12.7772 46.0089
12.7889 31.1748
12.8006 18.597
12.8124 17.0498
12.8241 16.8359
12.8358 16.7817
12.8476 16.7092
12.8593 16.6737
12.8711 16.6358
12.8828 16.6692
12.8945 16.6462
12.9063 16.5973
12.918 16.5863
12.9297 16.5716
12.9415 16.5855
12.9532 16.653
12.9649 16.6702
12.9767 16.6232
12.9884 16.6073
13.0002 16.5971
13.0119 16.6197
13.0236 16.5635
13.0354 16.6186
13.0471 16.5531
13.0588 16.5986
13.0706 16.5853
13.0823 16.6035
13.0941 16.6083
13.1058 16.5795
13.1175 16.5248
13.1293 16.5877
13.141 16.5711
13.1528 16.6023
13.1645 16.7114
13.1762 16.7057
13.188 16.6462
13.1997 16.5855
13.2115 16.6252
13.2232 16.6343
13.2349 16.6156
13.2467 16.6983
13.2584 16.7208
13.2702 16.7759
13.2819 16.8894
13.2936 17.287
13.3054 20.5661
13.3171 27.7108
13.3289 31.3504
13.3406 31.5899
13.3523 28.3542
13.3641 20.8547
13.3758 17.3147
13.3876 16.9968
13.3993 16.9242
13.411 16.8193
13.4228 16.8444
13.4345 16.8554
13.4463 16.8566
13.458 16.9076
13.4698 16.8813
13.4815 16.8715
13.4932 16.9405
13.505 16.9652
13.5167 16.9077
13.5285 16.9716
13.5402 16.9446
13.552 16.9706
13.5637 17.0782
13.5755 17.0288
13.5872 17.0191
13.5989 17.0631
13.6107 17.0169
13.6224 17.1221
13.6342 17.1843
13.6459 17.2241
13.6577 17.2608
13.6694 17.3293
13.6812 17.5383
13.6929 17.7806
13.7046 19.0314
13.7164 31.608
13.7281 63.0118
13.7399 78.7585
13.7516 80.7087
13.7634 73.6226
13.7751 44.0122
13.7869 21.0728
13.7986 18.2545
13.8104 17.8771
13.8221 17.7671
13.8339 17.8556
13.8456 19.4174
13.8574 28.0456
13.8691 37.6313
13.8809 40.3885
13.8926 39.6439
13.9043 33.0983
13.9161 21.281
13.9278 17.8596
13.9396 17.5172
13.9513 17.4354
13.9631 17.3272
13.9748 17.3117
13.9866 17.3068
13.9983 17.2479
14.0101 17.2352
14.0218 17.2551
14.0336 17.3071
14.0453 17.2708
14.0571 17.2869
14.0688 17.2561
14.0806 17.2599
14.0923 17.2646
14.1041 17.2971
14.1158 17.3156
14.1276 17.286
14.1393 17.286
14.1511 17.338
14.1628 17.3105
14.1746 17.3476
14.1864 17.3305
14.1981 17.3186
14.2099 17.31
14.2216 17.3562
14.2334 17.4142
14.2451 17.4087
14.2569 17.4544
14.2686 17.515
14.2804 17.5568
14.2921 17.5701
14.3039 17.6148
14.3156 17.6246
14.3274 17.7322
14.3391 17.8978
14.3509 18.0996
14.3626 18.789
14.3744 25.6596
14.3862 54.5845
14.3979 78.4807
14.4097 83.3092
14.4214 81.1214
14.4332 63.1975
14.4449 29.8252
14.4567 19.3
14.4684 18.3271
14.4802 18.0122
14.4919 17.879
14.5037 17.7494
14.5155 17.7281
14.5272 17.6355
14.539 17.6392
14.5507 17.6427
14.5625 17.618
14.5742 17.5665
14.586 17.5355
14.5978 17.5982
14.6095 17.5986
14.6213 17.622
14.633 17.5863
14.6448 17.6153
14.6565 17.6014
14.6683 17.6689
14.6801 17.7353
14.6918 17.7244
14.7036 17.7973
14.7153 17.8913
14.7271 18.0246
14.7389 18.307
14.7506 20.1005
14.7624 35.4905
14.7741 69.7858
14.7859 85.0203
14.7977 87.1818
14.8094 81.9331
14.8212 55.278
14.8329 24.5675
14.8447 18.8186
14.8565 18.1651
14.8682 17.885
14.88 17.7647
14.8917 17.6765
14.9035 17.6136
14.9153 17.6088
14.927 17.4921
14.9388 17.5167
14.9505 17.4645
14.9623 17.4752
14.9741 17.5035
14.9858 17.4754
14.9976 17.3715
15.0094 17.3982
15.0211 17.4246
15.0329 17.4253
15.0446 17.3247
15.0564 17.3524
15.0682 17.3869
15.0799 17.4069
15.0917 17.3435
15.1035 17.3953
15.1152 17.3157
15.127 17.3594
15.1388 17.3657
15.1505 17.2629
15.1623 17.242
15.174 17.3486
15.1858 17.3831
15.1976 17.3721
15.2093 17.4346
15.2211 17.3856
15.2329 17.3382
15.2446 17.3096
15.2564 17.4009
15.2682 17.3211
15.2799 17.3687
15.2917 17.4196
15.3035 17.4094
15.3152 17.3996
15.327 17.3992
15.3388 17.394
15.3505 17.4301
15.3623 17.5314
15.3741 18.0692
15.3858 20.2269
15.3976 22.8892
15.4094 23.6912
15.4211 23.5148
15.4329 22.0974
15.4447 18.9796
15.4565 17.7206
15.4682 17.5412
15.48 17.4971
15.4918 17.5361
15.5035 17.5946
15.5153 17.5199
15.5271 17.5007
15.5388 17.5599
15.5506 17.4905
15.5624 17.4987
15.5741 17.5593
15.5859 17.5398
15.5977 17.5918
15.6095 17.5467
15.6212 17.6545
15.633 17.5373
15.6448 17.5853
15.6565 17.5895
15.6683 17.7086
15.6801 17.743
15.6919 17.7155
15.7036 17.7662
15.7154 18.0234
15.7272 18.3647
15.7389 22.0697
15.7507 30.5995
15.7625 35.1272
15.7743 35.8515
15.786 34.6159
15.7978 28.222
15.8096 20.3228
15.8214 18.3635
15.8331 18.3275
15.8449 18.9605
15.8567 24.1555
15.8685 36.7426
15.8802 43.5096
15.892 44.6667
15.9038 42.9302
15.9156 34.2312
15.9273 21.6281
15.9391 18.4875
15.9509 18.0055
15.9627 18.1776
15.9744 17.9976
15.9862 17.986
15.998 17.9572
16.0098 17.9036
16.0215 17.9322
16.0333 17.8584
16.0451 17.8633
16.0569 17.8586
16.0687 18.0082
16.0804 17.8071
16.0922 17.7991
16.104 17.839
16.1158 18.0057
16.1275 17.9814
16.1393 17.9462
16.1511 17.883
16.1629 17.8298
16.1747 18.0086
16.1864 17.9104
16.1982 18.0335
16.21 17.7831
16.2218 17.923
16.2336 17.981
16.2453 18.0147
16.2571 18.2491
16.2689 18.1684
16.2807 18.2032
16.2925 18.2849
16.3042 18.7574
16.316 21.5579
16.3278 32.9715
16.3396 43.9827
16.3514 46.7527
16.3631 46.6399
16.3749 41.8795
16.3867 27.7824
16.3985 19.7732
16.4103 18.4773
16.4221 18.2671
16.4338 18.3578
16.4456 18.1657
16.4574 18.2471
16.4692 18.1363
16.481 18.1791
16.4928 17.7946
16.5045 17.8098
16.5163 17.8238
16.5281 17.7318
16.5399 17.8428
16.5517 17.9199
16.5635 18.0864
16.5752 17.9761
16.587 18.0791
16.5988 18.3827
16.6106 17.9576
16.6224 18.0831
16.6342 18.8168
16.646 18.7676
16.6577 22.9052
16.6695 36.5134
16.6813 48.2705