File: examples/data/28ID-2-C-XRD/mid-field-detector/NIST-CeO2/img.xy
0.828095 125.428
0.834112 124.875
0.840129 124.366
0.846146 123.853
0.852164 123.279
0.858181 122.784
0.864198 122.317
0.870215 121.894
0.876233 121.559
0.88225 121.182
0.888267 120.71
0.894284 120.174
0.900301 119.759
0.906319 119.342
0.912336 119.001
0.918353 118.595
0.92437 118.202
0.930388 117.809
0.936405 117.591
0.942422 117.308
0.948439 117.009
0.954457 116.605
0.960474 116.231
0.966491 115.822
0.972508 115.429
0.978526 115.146
0.984543 114.916
0.99056 114.636
0.996577 114.314
1.00259 114.058
1.00861 113.793
1.01463 113.526
1.02065 113.28
1.02666 112.987
1.03268 112.787
1.0387 112.587
1.04472 112.343
1.05073 112.151
1.05675 112.068
1.06277 111.858
1.06878 111.674
1.0748 111.581
1.08082 111.4
1.08684 111.226
1.09285 111.043
1.09887 110.878
1.10489 110.692
1.11091 110.544
1.11692 110.387
1.12294 110.332
1.12896 110.267
1.13498 110.133
1.14099 109.998
1.14701 109.936
1.15303 109.887
1.15904 109.847
1.16506 109.699
1.17108 109.657
1.1771 109.597
1.18311 109.528
1.18913 109.48
1.19515 109.404
1.20117 109.358
1.20718 109.337
1.2132 109.278
1.21922 109.291
1.22524 109.236
1.23125 109.257
1.23727 109.277
1.24329 109.257
1.24931 109.255
1.25532 109.247
1.26134 109.178
1.26736 109.145
1.27338 109.216
1.27939 109.259
1.28541 109.188
1.29143 109.168
1.29744 109.209
1.30346 109.228
1.30948 109.205
1.3155 109.164
1.32151 109.181
1.32753 109.169
1.33355 109.102
1.33957 109.012
1.34558 108.964
1.3516 108.879
1.35762 108.722
1.36364 108.693
1.36965 108.551
1.37567 108.416
1.38169 108.281
1.38771 108.188
1.39372 108.145
1.39974 108.073
1.40576 107.939
1.41178 107.785
1.41779 107.764
1.42381 107.591
1.42983 107.355
1.43585 107.25
1.44186 107.172
1.44788 107.055
1.4539 106.911
1.45992 106.805
1.46593 106.694
1.47195 106.61
1.47797 106.43
1.48399 106.291
1.49 106.114
1.49602 106.032
1.50204 105.926
1.50806 105.754
1.51407 105.637
1.52009 105.542
1.52611 105.376
1.53213 105.279
1.53814 105.143
1.54416 105.073
1.55018 105.05
1.5562 104.925
1.56222 104.811
1.56823 104.778
1.57425 104.696
1.58027 104.538
1.58629 104.468
1.5923 104.457
1.59832 104.367
1.60434 104.272
1.61036 104.231
1.61637 104.218
1.62239 104.177
1.62841 104.121
1.63443 104.062
1.64044 103.949
1.64646 103.871
1.65248 103.872
1.6585 103.832
1.66452 103.822
1.67053 103.764
1.67655 103.715
1.68257 103.675
1.68859 103.621
1.6946 103.602
1.70062 103.554
1.70664 103.546
1.71266 103.503
1.71867 103.455
1.72469 103.445
1.73071 103.414
1.73673 103.416
1.74275 103.412
1.74876 103.44
1.75478 103.433
1.7608 103.365
1.76682 103.332
1.77283 103.327
1.77885 103.269
1.78487 103.183
1.79089 103.167
1.79691 103.128
1.80292 103.084
1.80894 103.091
1.81496 103.124
1.82098 103.08
1.82699 103.043
1.83301 103.04
1.83903 103.026
1.84505 103.005
1.85107 103.008
1.85708 102.961
1.8631 102.958
1.86912 102.91
1.87514 102.902
1.88115 102.896
1.88717 102.845
1.89319 102.828
1.89921 102.867
1.90523 102.842
1.91124 102.886
1.91726 102.924
1.92328 102.892
1.9293 102.792
1.93532 102.748
1.94133 102.735
1.94735 102.671
1.95337 102.641
1.95939 102.631
1.96541 102.57
1.97142 102.517
1.97744 102.488
1.98346 102.421
1.98948 102.394
1.99549 102.357
2.00151 102.271
2.00753 102.211
2.01355 102.156
2.01957 102.083
2.02558 102.046
2.0316 101.97
2.03762 101.871
2.04364 101.824
2.04966 101.743
2.05567 101.675
2.06169 101.613
2.06771 101.562
2.07373 101.454
2.07975 101.38
2.08576 101.345
2.09178 101.302
2.0978 101.231
2.10382 101.218
2.10984 101.192
2.11586 101.07
2.12187 100.956
2.12789 100.859
2.13391 100.744
2.13993 100.627
2.14595 100.496
2.15196 100.375
2.15798 100.298
2.164 100.173
2.17002 100.076
2.17604 100.011
2.18205 99.921
2.18807 99.8055
2.19409 99.6934
2.20011 99.5854
2.20613 99.496
2.21214 99.4324
2.21816 99.3017
2.22418 99.1234
2.2302 99.0264
2.23622 98.9464
2.24224 98.8071
2.24825 98.6961
2.25427 98.5602
2.26029 98.4246
2.26631 98.3014
2.27233 98.1993
2.27835 98.1225
2.28436 98.0356
2.29038 97.9497
2.2964 97.8018
2.30242 97.6538
2.30844 97.4919
2.31445 97.3359
2.32047 97.2156
2.32649 97.0999
2.33251 96.9649
2.33853 96.8994
2.34455 96.7934
2.35056 96.7001
2.35658 96.5849
2.3626 96.4525
2.36862 96.3461
2.37464 96.2708
2.38066 96.1326
2.38667 95.98
2.39269 95.8506
2.39871 95.7809
2.40473 95.7016
2.41075 95.5859
2.41677 95.4474
2.42278 95.3459
2.4288 95.2448
2.43482 95.1177
2.44084 95.0193
2.44686 94.8915
2.45288 94.7646
2.45889 94.6465
2.46491 94.5057
2.47093 94.4144
2.47695 94.3356
2.48297 94.2604
2.48899 94.1945
2.49501 94.1079
2.50102 93.969
2.50704 93.8572
2.51306 93.7814
2.51908 93.6598
2.5251 93.5483
2.53112 93.4757
2.53714 93.4259
2.54315 93.311
2.54917 93.2011
2.55519 93.071
2.56121 92.9587
2.56723 92.8458
2.57325 92.7547
2.57926 92.6897
2.58528 92.6033
2.5913 92.5019
2.59732 92.3965
2.60334 92.2696
2.60936 92.1839
2.61538 92.0883
2.6214 92.0068
2.62741 91.9474
2.63343 91.7969
2.63945 91.6462
2.64547 91.5877
2.65149 91.5722
2.65751 91.5338
2.66353 91.3877
2.66954 91.2971
2.67556 91.1922
2.68158 91.077
2.6876 91.0128
2.69362 90.9284
2.69964 90.8577
2.70566 90.7862
2.71168 90.7388
2.71769 90.6895
2.72371 90.6265
2.72973 90.5253
2.73575 90.3812
2.74177 90.2448
2.74779 90.17
2.75381 90.0849
2.75983 89.9497
2.76584 89.8546
2.77186 89.8111
2.77788 89.7507
2.7839 89.6741
2.78992 89.6262
2.79594 89.5679
2.80196 89.5536
2.80798 89.4761
2.81399 89.3471
2.82001 89.2659
2.82603 89.235
2.83205 89.2214
2.83807 89.1677
2.84409 89.0701
2.85011 88.9543
2.85613 88.8732
2.86215 88.8341
2.86816 88.8187
2.87418 88.7584
2.8802 88.6883
2.88622 88.6517
2.89224 88.6238
2.89826 88.584
2.90428 88.5311
2.9103 88.4663
2.91632 88.3901
2.92234 88.3408
2.92835 88.312
2.93437 88.2917
2.94039 88.2684
2.94641 88.2758
2.95243 88.2662
2.95845 88.2568
2.96447 88.2603
2.97049 88.2847
2.97651 88.2876
2.98253 88.2526
2.98854 88.2041
2.99456 88.1047
3.00058 88.0238
3.0066 87.9688
3.01262 87.9393
3.01864 87.957
3.02466 87.924
3.03068 87.898
3.0367 87.9021
3.04272 87.914
3.04874 87.9168
3.05476 87.9063
3.06077 87.8929
3.06679 87.8568
3.07281 87.8086
3.07883 87.7596
3.08485 87.7787
3.09087 87.7509
3.09689 87.7414
3.10291 87.788
3.10893 87.8443
3.11495 87.912
3.12097 87.9681
3.12699 88.0165
3.13301 88.1121
3.13902 88.2325
3.14504 88.3346
3.15106 88.4377
3.15708 88.5515
3.1631 88.6821
3.16912 88.8888
3.17514 89.1494
3.18116 89.4098
3.18718 89.747
3.1932 90.1615
3.19922 90.659
3.20524 91.2706
3.21126 91.9791
3.21728 92.8448
3.2233 93.8693
3.22932 95.2527
3.23533 97.0382
3.24135 99.3523
3.24737 102.448
3.25339 106.898
3.25941 113.428
3.26543 123.109
3.27145 138.146
3.27747 162.663
3.28349 206.77
3.28951 293.362
3.29553 483.312
3.30155 960.525
3.30757 2190.79
3.31359 4630.79
3.31961 7285.64
3.32563 8207.68
3.33165 7062.64
3.33767 4521.2
3.34369 2222.84
3.34971 983.652
3.35573 486.65
3.36174 290.799
3.36776 203.356
3.37378 159.245
3.3798 134.438
3.38582 119.484
3.39184 109.857
3.39786 103.381
3.40388 98.8684
3.4099 95.5606
3.41592 93.0165
3.42194 91.0503
3.42796 89.5107
3.43398 88.2369
3.44 87.1657
3.44602 86.3152
3.45204 85.6111
3.45806 85.0196
3.46408 84.4698
3.4701 83.9684
3.47612 83.4539
3.48214 82.9541
3.48816 82.4738
3.49418 82.0386
3.5002 81.6643
3.50622 81.3432
3.51224 81.079
3.51826 80.8277
3.52428 80.5837
3.5303 80.3701
3.53632 80.1657
3.54234 79.9803
3.54836 79.7473
3.55438 79.5151
3.5604 79.3038
3.56642 79.0921
3.57244 78.928
3.57846 78.7331
3.58448 78.5595
3.5905 78.3692
3.59652 78.2352
3.60254 78.1117
3.60856 78.0066
3.61458 77.8716
3.6206 77.7174
3.62662 77.6032
3.63264 77.506
3.63866 77.4296
3.64468 77.3147
3.6507 77.1848
3.65672 77.1099
3.66274 77.0436
3.66876 76.9457
3.67478 76.8534
3.6808 76.7676
3.68682 76.7482
3.69284 76.7388
3.69886 76.732
3.70488 76.7233
3.7109 76.7327
3.71692 76.7814
3.72294 76.8848
3.72896 77.0516
3.73498 77.2247
3.741 77.4862
3.74702 77.8124
3.75304 78.2825
3.75906 78.9706
3.76508 79.8839
3.7711 81.2412
3.77712 83.3335
3.78314 86.6167
3.78916 91.8677
3.79518 100.759
3.8012 117.312
3.80722 151.26
3.81324 230.949
3.81927 440.869
3.82529 945.121
3.83131 1753.53
3.83733 2301.07
3.84335 2284.45
3.84937 1735.23
3.85539 992.023
3.86141 476.35
3.86743 243.457
3.87345 154.162
3.87947 117.061
3.88549 99.4737
3.89151 90.081
3.89753 84.5193
3.90355 81.0665
3.90957 78.8367
3.91559 77.2739
3.92161 76.1458
3.92763 75.248
3.93365 74.5178
3.93967 73.9835
3.9457 73.5242
3.95172 73.1592
3.95774 72.8358
3.96376 72.5499
3.96978 72.2993
3.9758 72.0447
3.98182 71.8424
3.98784 71.6563
3.99386 71.4657
3.99988 71.2838
4.0059 71.1311
4.01192 70.9964
4.01794 70.8771
4.02396 70.8062
4.02999 70.7337
4.03601 70.6331
4.04203 70.5207
4.04805 70.3596
4.05407 70.1633
4.06009 70.001
4.06611 69.8862
4.07213 69.7685
4.07815 69.6561
4.08417 69.5558
4.09019 69.4494
4.09621 69.3625
4.10224 69.2698
4.10826 69.1774
4.11428 69.1327
4.1203 69.0697
4.12632 69.0078
4.13234 68.9076
4.13836 68.81
4.14438 68.716
4.1504 68.6118
4.15642 68.5491
4.16244 68.5038
4.16847 68.4107
4.17449 68.3391
4.18051 68.2873
4.18653 68.2301
4.19255 68.1516
4.19857 68.0571
4.20459 67.9838
4.21061 67.9665
4.21663 67.9002
4.22266 67.8319
4.22868 67.7718
4.2347 67.7163
4.24072 67.6454
4.24674 67.5826
4.25276 67.5503
4.25878 67.5007
4.2648 67.4347
4.27082 67.4123
4.27685 67.4308
4.28287 67.4644
4.28889 67.4963
4.29491 67.561
4.30093 67.5979
4.30695 67.5366
4.31297 67.3989
4.319 67.27
4.32502 67.1619
4.33104 67.0318
4.33706 66.9016
4.34308 66.8302
4.3491 66.7617
4.35512 66.7214
4.36114 66.6377
4.36717 66.5546
4.37319 66.512
4.37921 66.4725
4.38523 66.4211
4.39125 66.3886
4.39727 66.3667
4.40329 66.3248
4.40932 66.2453
4.41534 66.1842
4.42136 66.1438
4.42738 66.0781
4.4334 66.0287
4.43942 66.0154
4.44545 65.9866
4.45147 65.9527
4.45749 65.8938
4.46351 65.8847
4.46953 65.9406
4.47555 66.0152
4.48158 66.0574
4.4876 66.0795
4.49362 65.9805
4.49964 65.7883
4.50566 65.6023
4.51168 65.5402
4.51771 65.5173
4.52373 65.4624
4.52975 65.4495
4.53577 65.4299
4.54179 65.3746
4.54781 65.3131
4.55384 65.2698
4.55986 65.2137
4.56588 65.1823
4.5719 65.1367
4.57792 65.1007
4.58394 65.0721
4.58997 65.0473
4.59599 65.0042
4.60201 64.9516
4.60803 64.92
4.61405 64.8823
4.62008 64.8498
4.6261 64.804
4.63212 64.7881
4.63814 64.7794
4.64416 64.7658
4.65019 64.7254
4.65621 64.7148
4.66223 64.6895
4.66825 64.6662
4.67427 64.6686
4.6803 64.6422
4.68632 64.6062
4.69234 64.5922
4.69836 64.58
4.70438 64.564
4.71041 64.5424
4.71643 64.5055
4.72245 64.4753
4.72847 64.474
4.7345 64.4681
4.74052 64.444
4.74654 64.4288
4.75256 64.4251
4.75858 64.4311
4.76461 64.3887
4.77063 64.3757
4.77665 64.3637
4.78267 64.361
4.7887 64.3546
4.79472 64.3486
4.80074 64.3459
4.80676 64.3887
4.81278 64.4435
4.81881 64.4825
4.82483 64.4935
4.83085 64.4776
4.83687 64.4386
4.8429 64.3972
4.84892 64.383
4.85494 64.3471
4.86096 64.3253
4.86699 64.3315
4.87301 64.3221
4.87903 64.3461
4.88505 64.37
4.89108 64.3727
4.8971 64.3857
4.90312 64.3907
4.90914 64.4071
4.91517 64.4342
4.92119 64.4356
4.92721 64.4147
4.93323 64.4151
4.93926 64.414
4.94528 64.4268
4.9513 64.4371
4.95733 64.433
4.96335 64.4233
4.96937 64.4783
4.97539 64.4929
4.98142 64.5969
4.98744 64.6587
4.99346 64.6742
4.99948 64.7137
5.00551 64.7639
5.01153 64.7677
5.01755 64.7705
5.02358 64.7998
5.0296 64.86
5.03562 64.9194
5.04164 64.9557
5.04767 64.9932
5.05369 64.9959
5.05971 65.0475
5.06574 65.0806
5.07176 65.0957
5.07778 65.186
5.0838 65.2394
5.08983 65.3
5.09585 65.3447
5.10187 65.371
5.1079 65.4325
5.11392 65.4896
5.11994 65.5312
5.12597 65.5858
5.13199 65.6558
5.13801 65.7286
5.14403 65.7774
5.15006 65.8496
5.15608 65.924
5.1621 66.0014
5.16813 66.0962
5.17415 66.1575
5.18017 66.2169
5.1862 66.2695
5.19222 66.3491
5.19824 66.4188
5.20427 66.5359
5.21029 66.6557
5.21631 66.7581
5.22234 66.8905
5.22836 67.0277
5.23438 67.1645
5.24041 67.3229
5.24643 67.4861
5.25245 67.6726
5.25848 67.8403
5.2645 68.0075
5.27052 68.2243
5.27655 68.4518
5.28257 68.6843
5.28859 68.9873
5.29462 69.3168
5.30064 69.6576
5.30666 70.0937
5.31269 70.5898
5.31871 71.1315
5.32473 71.7616
5.33076 72.5225
5.33678 73.4709
5.34281 74.655
5.34883 76.1949
5.35485 78.2391
5.36088 81.0625
5.3669 85.2262
5.37292 91.3607
5.37895 100.781
5.38497 116.002
5.39099 142.823
5.39702 194.911
5.40304 308.653
5.40907 591.758
5.41509 1338.44
5.42111 2883.49
5.42714 4441.18
5.43316 4844.72
5.43918 4149.3
5.44521 2742.55
5.45123 1426.64
5.45726 651.805
5.46328 326.136
5.4693 198.867
5.47533 142.825
5.48135 114.839
5.48738 99.3251
5.4934 90.0069
5.49942 84.0779
5.50545 80.1259
5.51147 77.4018
5.5175 75.4525
5.52352 73.983
5.52954 72.8017
5.53557 71.8228
5.54159 71.0296
5.54762 70.3852
5.55364 69.8278
5.55966 69.3614
5.56569 68.9668
5.57171 68.6315
5.57774 68.3312
5.58376 68.0796
5.58979 67.8744
5.59581 67.6511
5.60183 67.4315
5.60786 67.2082
5.61388 67.0402
5.61991 66.8648
5.62593 66.6903
5.63195 66.5793
5.63798 66.4689
5.644 66.3404
5.65003 66.2114
5.65605 66.1295
5.66208 66.0103
5.6681 65.8941
5.67413 65.798
5.68015 65.7345
5.68617 65.6425
5.6922 65.5587
5.69822 65.487
5.70425 65.4312
5.71027 65.3713
5.7163 65.3131
5.72232 65.2515
5.72835 65.1825
5.73437 65.1622
5.7404 65.1313
5.74642 65.0908
5.75244 65.0693
5.75847 65.0585
5.76449 64.9837
5.77052 64.9291
5.77654 64.9085
5.78257 64.8512
5.78859 64.826
5.79462 64.8078
5.80064 64.7762
5.80667 64.7292
5.81269 64.7063
5.81872 64.6836
5.82474 64.623
5.83077 64.6078
5.83679 64.5853
5.84282 64.5697
5.84884 64.5732
5.85487 64.5552
5.86089 64.5525
5.86692 64.5167
5.87294 64.4972
5.87897 64.483
5.88499 64.4946
5.89102 64.4759
5.89704 64.4794
5.90307 64.5114
5.90909 64.5097
5.91512 64.4856
5.92114 64.5061
5.92717 64.5372
5.93319 64.5446
5.93922 64.5942
5.94524 64.5948
5.95127 64.6606
5.95729 64.7202
5.96332 64.76
5.96934 64.7656
5.97537 64.7337
5.98139 64.672
5.98742 64.6668
5.99344 64.6456
5.99947 64.6096
6.00549 64.622
6.01152 64.6373
6.01754 64.6702
6.02357 64.6713
6.02959 64.7087
6.03562 64.7448
6.04165 64.7782
6.04767 64.8385
6.0537 64.879
6.05972 64.8987
6.06575 64.9577
6.07177 65.0294
6.0778 65.129
6.08382 65.2052
6.08985 65.2599
6.09587 65.2873
6.1019 65.3227
6.10793 65.3849
6.11395 65.4408
6.11998 65.4807
6.126 65.5063
6.13203 65.5452
6.13805 65.6139
6.14408 65.6959
6.15011 65.7855
6.15613 65.8792
6.16216 65.9611
6.16818 66.0573
6.17421 66.177
6.18023 66.3173
6.18626 66.4611
6.19229 66.6044
6.19831 66.778
6.20434 66.9443
6.21036 67.1175
6.21639 67.3008
6.22242 67.5292
6.22844 67.76
6.23447 68.02
6.24049 68.334
6.24652 68.7139
6.25255 69.167
6.25857 69.6811
6.2646 70.2651
6.27062 70.9719
6.27665 71.8381
6.28268 72.9177
6.2887 74.3149
6.29473 76.1649
6.30075 78.8102
6.30678 82.7319
6.31281 88.4465
6.31883 97.184
6.32486 111.64
6.33088 137.702
6.33691 189.31
6.34294 304.571
6.34896 600.185
6.35499 1375.66
6.36102 2757.11
6.36704 3807.25
6.37307 3939.9
6.3791 3295.92
6.38512 2157
6.39115 1120.87
6.39717 519.376
6.4032 269.604
6.40923 170.701
6.41525 126.832
6.42128 104.815
6.42731 92.4674
6.43333 84.952
6.43936 80.1844
6.44539 77.031
6.45141 74.8524
6.45744 73.2765
6.46347 72.1055
6.46949 71.1872
6.47552 70.3455
6.48155 69.6769
6.48757 69.1437
6.4936 68.7107
6.49963 68.3165
6.50565 68.0058
6.51168 67.7102
6.51771 67.5111
6.52373 67.3002
6.52976 67.1412
6.53579 67.009
6.54181 66.9244
6.54784 66.8486
6.55387 66.8269
6.55989 66.839
6.56592 66.8916
6.57195 66.995
6.57798 67.2139
6.584 67.5951
6.59003 68.1969
6.59606 69.1164
6.60208 70.6365
6.60811 73.1628
6.61414 77.8847
6.62016 87.5012
6.62619 108.931
6.63222 163.37
6.63825 304.585
6.64427 557.008
6.6503 756.321
6.65633 788.834
6.66235 681.973
6.66838 476.517
6.67441 278.61
6.68044 157.765
6.68646 105.604
6.69249 84.8534
6.69852 75.7184
6.70455 71.2248
6.71057 68.7388
6.7166 67.2335
6.72263 66.2573
6.72866 65.6161
6.73468 65.1425
6.74071 64.7853
6.74674 64.4978
6.75277 64.3005
6.75879 64.1034
6.76482 63.9085
6.77085 63.779
6.77688 63.6736
6.7829 63.5634
6.78893 63.4322
6.79496 63.3363
6.80099 63.2234
6.80701 63.1663
6.81304 63.1182
6.81907 63.0666
6.8251 62.9895
6.83112 62.9227
6.83715 62.8528
6.84318 62.7941
6.84921 62.7768
6.85524 62.7214
6.86126 62.6444
6.86729 62.5791
6.87332 62.5208
6.87935 62.5114
6.88538 62.4385
6.8914 62.4123
6.89743 62.379
6.90346 62.3456
6.90949 62.3251
6.91551 62.2447
6.92154 62.2048
6.92757 62.2029
6.9336 62.1611
6.93963 62.1385
6.94566 62.0959
6.95168 62.0714
6.95771 62.0223
6.96374 62.0387
6.96977 61.9994
6.9758 61.9717
6.98182 61.9491
6.98785 61.9325
6.99388 61.9297
6.99991 61.9011
7.00594 61.8854
7.01197 61.8737
7.01799 61.824
7.02402 61.833
7.03005 61.8391
7.03608 61.8296
7.04211 61.7902
7.04814 61.7771
7.05416 61.7855
7.06019 61.7848
7.06622 61.82
7.07225 61.7972
7.07828 61.7889
7.08431 61.781
7.09034 61.7451
7.09636 61.7056
7.10239 61.6753
7.10842 61.6572
7.11445 61.6025
7.12048 61.5558
7.12651 61.555
7.13254 61.5526
7.13856 61.5564
7.14459 61.5459
7.15062 61.5548
7.15665 61.5439
7.16268 61.5681
7.16871 61.5664
7.17474 61.5545
7.18077 61.5215
7.1868 61.5168
7.19282 61.5422
7.19885 61.5409
7.20488 61.5304
7.21091 61.5158
7.21694 61.5422
7.22297 61.5354
7.229 61.4874
7.23503 61.48
7.24106 61.516
7.24709 61.5428
7.25311 61.5359
7.25914 61.5272
7.26517 61.5464
7.2712 61.5336
7.27723 61.5246
7.28326 61.5494
7.28929 61.5558
7.29532 61.5607
7.30135 61.5675
7.30738 61.5243
7.31341 61.5242
7.31944 61.5196
7.32547 61.5543
7.33149 61.5785
7.33752 61.579
7.34355 61.5708
7.34958 61.5627
7.35561 61.591
7.36164 61.6008
7.36767 61.6186
7.3737 61.6613
7.37973 61.6685
7.38576 61.7178
7.39179 61.7584
7.39782 61.6859
7.40385 61.7166
7.40988 61.7864
7.41591 61.7982
7.42194 61.8228
7.42797 61.8511
7.434 61.8955
7.44003 61.9396
7.44606 61.9689
7.45209 62.001
7.45812 62.0371
7.46415 62.1288
7.47018 62.2277
7.47621 62.2254
7.48224 62.2611
7.48827 62.2723
7.4943 62.2904
7.50033 62.3256
7.50636 62.3977
7.51239 62.4826
7.51842 62.5218
7.52445 62.5502
7.53048 62.5929
7.53651 62.6556
7.54254 62.7253
7.54857 62.7597
7.5546 62.8747
7.56063 62.9891
7.56666 63.1034
7.57269 63.2227
7.57872 63.3794
7.58475 63.5846
7.59078 63.7218
7.59681 63.9683
7.60284 64.2934
7.60887 64.6666
7.6149 65.1853
7.62093 65.929
7.62696 67.1045
7.63299 68.8397
7.63902 71.6971
7.64505 76.9293
7.65108 87.6019
7.65711 111.892
7.66314 175.134
7.66917 328.008
7.6752 561.647
7.68123 735.742
7.68726 765.263
7.69329 667.327
7.69933 475.882
7.70536 284.452
7.71139 161.554
7.71742 106.551
7.72345 84.8067
7.72948 75.442
7.73551 70.8715
7.74154 68.3816
7.74757 66.9315
7.7536 66.0689
7.75963 65.4726
7.76566 65.0482
7.77169 64.7522
7.77773 64.4561
7.78376 64.2537
7.78979 64.1472
7.79582 64.0238
7.80185 63.9088
7.80788 63.8062
7.81391 63.7231
7.81994 63.6811
7.82597 63.6034
7.832 63.5719
7.83804 63.5522
7.84407 63.529
7.8501 63.525
7.85613 63.5023
7.86216 63.5038
7.86819 63.4832
7.87422 63.4779
7.88025 63.486
7.88629 63.4742
7.89232 63.4736
7.89835 63.4871
7.90438 63.5273
7.91041 63.5217
7.91644 63.4723
7.92247 63.4246
7.92851 63.4076
7.93454 63.4764
7.94057 63.5208
7.9466 63.5364
7.95263 63.5344
7.95866 63.5563
7.96469 63.5698
7.97073 63.5845
7.97676 63.6386
7.98279 63.6115
7.98882 63.6014
7.99485 63.5884
8.00088 63.6501
8.00692 63.659
8.01295 63.7168
8.01898 63.7836
8.02501 63.768
8.03104 63.7997
8.03708 63.8252
8.04311 63.8418
8.04914 63.92
8.05517 63.9385
8.0612 63.9948
8.06724 64.0062
8.07327 64.0251
8.0793 64.0834
8.08533 64.0913
8.09136 64.1729
8.0974 64.2271
8.10343 64.2759
8.10946 64.3163
8.11549 64.3451
8.12152 64.4068
8.12756 64.4487
8.13359 64.4621
8.13962 64.5192
8.14565 64.5607
8.15169 64.6081
8.15772 64.676
8.16375 64.7014
8.16978 64.8175
8.17581 64.9219
8.18185 64.9824
8.18788 65.0848
8.19391 65.2047
8.19994 65.2858
8.20598 65.3517
8.21201 65.4851
8.21804 65.6216
8.22407 65.7488
8.23011 65.8318
8.23614 66.0004
8.24217 66.1903
8.2482 66.3263
8.25424 66.6111
8.26027 66.9199
8.2663 67.1823
8.27234 67.4386
8.27837 67.7784
8.2844 68.228
8.29043 68.8777
8.29647 69.6027
8.3025 70.6071
8.30853 72.0521
8.31457 74.2581
8.3206 77.4857
8.32663 82.6857
8.33266 91.7598
8.3387 109.544
8.34473 148.069
8.35076 242.216
8.3568 465.36
8.36283 858.369
8.36886 1287.03
8.3749 1533.03
8.38093 1500.58
8.38696 1228.04
8.393 826.737
8.39903 471.344
8.40506 253.957
8.4111 152.818
8.41713 110.722
8.42316 91.9904
8.4292 82.8152
8.43523 77.5939
8.44126 74.5987
8.4473 72.7387
8.45333 71.5241
8.45936 70.6696
8.4654 69.9776
8.47143 69.5015
8.47746 69.3058
8.4835 69.1671
8.48953 69.0491
8.49556 69.0583
8.5016 69.0049
8.50763 69.2401
8.51366 69.5463
8.5197 70.0979
8.52573 70.8569
8.53177 71.9989
8.5378 73.797
8.54383 76.6692
8.54987 81.5709
8.5559 90.6384
8.56193 110.371
8.56797 156.709
8.574 268.421
8.58004 482.414
8.58607 762.845
8.5921 975.413
8.59814 1018.71
8.60417 897.941
8.61021 661.098
8.61624 412.939
8.62227 236.912
8.62831 144.005
8.63434 104.079
8.64038 86.8937
8.64641 78.7313
8.65245 74.4485
8.65848 71.711
8.66451 69.9318
8.67055 68.8886
8.67658 68.0033
8.68262 67.4105
8.68865 66.8839
8.69469 66.5987
8.70072 66.3228
8.70675 66.1147
8.71279 65.9602
8.71882 65.8731
8.72486 65.5618
8.73089 65.3254
8.73693 65.2095
8.74296 65.1272
8.749 64.9947
8.75503 64.7991
8.76107 64.7193
8.7671 64.7902
8.77314 64.7674
8.77917 64.5639
8.7852 64.5909
8.79124 64.701
8.79727 64.6309
8.80331 64.8028
8.80934 64.6948
8.81538 64.5691
8.82141 64.5629
8.82745 64.3713
8.83348 64.813
8.83952 64.955
8.84555 64.6549
8.85159 64.6208
8.85762 64.9193