File: examples/data/28ID-2-C-XRD/far-field-detector/NIST-LaB6/img.xy
1.07717 20.8209
1.08883 20.8315
1.10049 20.7835
1.11216 20.7382
1.12382 20.6957
1.13548 20.6434
1.14714 20.6346
1.15881 20.6401
1.17047 20.6723
1.18213 20.5657
1.19379 20.5203
1.20546 20.5011
1.21712 20.5138
1.22878 20.5146
1.24044 20.4626
1.25211 20.5687
1.26377 20.5265
1.27543 20.6208
1.2871 20.548
1.29876 20.5105
1.31042 20.5433
1.32208 20.5209
1.33375 20.4861
1.34541 20.446
1.35707 20.4397
1.36873 20.3958
1.3804 20.4022
1.39206 20.369
1.40372 20.3172
1.41538 20.2391
1.42705 20.2154
1.43871 20.1416
1.45037 20.1635
1.46204 20.164
1.4737 20.1204
1.48536 20.0183
1.49702 19.9167
1.50869 19.9297
1.52035 19.9369
1.53201 19.8565
1.54368 19.7216
1.55534 19.7438
1.567 19.7182
1.57867 19.687
1.59033 19.6893
1.60199 19.5766
1.61365 19.6188
1.62532 19.6021
1.63698 19.5296
1.64864 19.5892
1.66031 19.5046
1.67197 19.5074
1.68363 19.5262
1.6953 19.5282
1.70696 19.5352
1.71862 19.4177
1.73029 19.4625
1.74195 19.4759
1.75361 19.5489
1.76528 19.5027
1.77694 19.3939
1.7886 19.4723
1.80027 19.4692
1.81193 19.4614
1.82359 19.3679
1.83526 19.3688
1.84692 19.4665
1.85858 19.4351
1.87025 19.4478
1.88191 19.3995
1.89357 19.3757
1.90524 19.2844
1.9169 19.4146
1.92856 19.462
1.94023 19.433
1.95189 19.4233
1.96355 19.4133
1.97522 19.4586
1.98688 19.4029
1.99855 19.3228
2.01021 19.2919
2.02187 19.3438
2.03354 19.3003
2.0452 19.2623
2.05686 19.2544
2.06853 19.2297
2.08019 19.2119
2.09186 19.1262
2.10352 19.1467
2.11518 19.0996
2.12685 19.0724
2.13851 19.0505
2.15017 18.9957
2.16184 18.9631
2.1735 18.9513
2.18517 18.9049
2.19683 18.8735
2.20849 18.8707
2.22016 18.8471
2.23182 18.7814
2.24349 18.7898
2.25515 18.7152
2.26682 18.6946
2.27848 18.6817
2.29014 18.6385
2.30181 18.5886
2.31347 18.5084
2.32514 18.5513
2.3368 18.4983
2.34847 18.4752
2.36013 18.4657
2.37179 18.5083
2.38346 18.5038
2.39512 18.509
2.40679 18.5382
2.41845 18.6643
2.43012 18.7917
2.44178 19.0195
2.45345 19.6529
2.46511 21.4459
2.47677 50.458
2.48844 287.846
2.5001 472.679
2.51177 218.565
2.52343 35.5538
2.5351 20.4031
2.54676 19.118
2.55843 18.5612
2.57009 18.1823
2.58176 18.0011
2.59342 17.79
2.60509 17.6558
2.61675 17.5186
2.62842 17.4127
2.64008 17.284
2.65175 17.2596
2.66341 17.1131
2.67508 17.0481
2.68674 17.0563
2.69841 16.936
2.71007 16.9132
2.72174 16.8633
2.7334 16.8275
2.74507 16.7502
2.75673 16.6861
2.7684 16.6252
2.78006 16.6022
2.79173 16.614
2.80339 16.5378
2.81506 16.4307
2.82673 16.4458
2.83839 16.4064
2.85006 16.3574
2.86172 16.295
2.87339 16.28
2.88505 16.2755
2.89672 16.1967
2.90838 16.1262
2.92005 16.0876
2.93172 16.0263
2.94338 16.0266
2.95505 15.9993
2.96671 16.0314
2.97838 15.9624
2.99004 15.9103
3.00171 15.8845
3.01338 15.8272
3.02504 15.7623
3.03671 15.7903
3.04837 15.763
3.06004 15.665
3.07171 15.642
3.08337 15.6269
3.09504 15.5772
3.1067 15.5072
3.11837 15.4309
3.13004 15.4478
3.1417 15.3978
3.15337 15.3696
3.16504 15.2862
3.1767 15.2418
3.18837 15.2398
3.20004 15.1461
3.2117 15.1225
3.22337 15.1487
3.23503 15.0868
3.2467 15.0876
3.25837 15.0204
3.27003 14.9817
3.2817 14.9746
3.29337 14.9933
3.30503 14.9414
3.3167 14.9002
3.32837 14.9028
3.34003 14.9234
3.3517 14.8482
3.36337 14.813
3.37504 14.8435
3.3867 14.9041
3.39837 14.9528
3.41004 14.9578
3.4217 15.0233
3.43337 15.0938
3.44504 15.2046
3.45671 15.4851
3.46837 15.8797
3.48004 16.4765
3.49171 17.7681
3.50337 23.4598
3.51504 133.373
3.52671 587.244
3.53838 732.732
3.55004 266.202
3.56171 34.2333
3.57338 18.3819
3.58505 16.4699
3.59671 15.6642
3.60838 15.1128
3.62005 14.785
3.63172 14.5653
3.64339 14.3847
3.65505 14.2364
3.66672 14.0811
3.67839 13.9319
3.69006 13.9007
3.70172 13.7953
3.71339 13.7531
3.72506 13.6573
3.73673 13.6582
3.7484 13.539
3.76007 13.4847
3.77173 13.4724
3.7834 13.433
3.79507 13.3969
3.80674 13.3508
3.81841 13.362
3.83007 13.3547
3.84174 13.3134
3.85341 13.2615
3.86508 13.1812
3.87675 13.1178
3.88842 13.0916
3.90009 13.0546
3.91175 12.9986
3.92342 13.0483
3.93509 12.9854
3.94676 12.9629
3.95843 12.9256
3.9701 12.8842
3.98177 12.8675
3.99344 12.8762
4.00511 12.8454
4.01677 12.8862
4.02844 12.8244
4.04011 12.8287
4.05178 12.8727
4.06345 12.7922
4.07512 12.7631
4.08679 12.8117
4.09846 12.7847
4.11013 12.7273
4.1218 12.6858
4.13347 12.6185
4.14514 12.6446
4.15681 12.7153
4.16848 12.667
4.18015 12.7231
4.19182 12.6781
4.20349 12.754
4.21515 12.8008
4.22682 12.8048
4.23849 12.8521
4.25016 12.9412
4.26183 13.1619
4.2735 13.4808
4.28517 14.0223
4.29684 16.1543
4.30851 54.9586
4.32018 237.22
4.33185 326.14
4.34353 153.993
4.3552 26.7011
4.36687 14.6262
4.37854 13.5955
4.39021 13.1852
4.40188 12.8657
4.41355 12.6999
4.42522 12.6174
4.43689 12.5123
4.44856 12.4391
4.46023 12.3873
4.4719 12.3356
4.48357 12.3129
4.49524 12.235
4.50691 12.1938
4.51858 12.2384
4.53026 12.1999
4.54193 12.149
4.5536 12.1341
4.56527 12.1147
4.57694 12.1365
4.58861 12.0561
4.60028 12.0041
4.61195 12.0809
4.62363 12.0681
4.6353 12.0237
4.64697 12.0509
4.65864 12.054
4.67031 11.9719
4.68198 11.9643
4.69365 11.9765
4.70533 11.9336
4.717 11.9431
4.72867 11.8942
4.74034 11.8753
4.75201 11.8745
4.76369 11.8614
4.77536 11.9253
4.78703 11.9176
4.7987 11.8413
4.81037 11.8468
4.82205 11.8795
4.83372 11.8752
4.84539 11.9121
4.85706 11.9754
4.86874 11.9695
4.88041 11.9571
4.89208 11.9725
4.90375 12.051
4.91543 12.0283
4.9271 12.1741
4.93877 12.2862
4.95044 12.5482
4.96212 13.0152
4.97379 19.7475
4.98546 81.846
4.99714 166.229
5.00881 133.394
5.02048 38.0643
5.03215 14.0574
5.04383 12.5657
5.0555 12.3131
5.06717 12.1906
5.07885 12.0754
5.09052 12.0169
5.10219 11.9517
5.11387 11.8903
5.12554 11.8045
5.13721 11.7898
5.14889 11.8128
5.16056 11.8141
5.17224 11.8045
5.18391 11.771
5.19558 11.808
5.20726 11.7812
5.21893 11.7471
5.23061 11.7053
5.24228 11.7311
5.25395 11.6822
5.26563 11.6911
5.2773 11.7276
5.28898 11.6928
5.30065 11.7452
5.31233 11.731
5.324 11.753
5.33567 11.7058
5.34735 11.7537
5.35902 11.7294
5.3707 11.727
5.38237 11.7044
5.39405 11.7066
5.40572 11.7151
5.4174 11.7393
5.42907 11.7339
5.44075 11.7753
5.45242 11.827
5.4641 11.8462
5.47577 11.8872
5.48745 11.9514
5.49912 12.053
5.5108 12.1912
5.52247 12.431
5.53415 12.7189
5.54583 13.3591
5.5575 16.3284
5.56918 67.0979
5.58085 263.326
5.59253 359.337
5.6042 197.06
5.61588 37.0938
5.62756 14.595
5.63923 13.0702
5.65091 12.5214
5.66258 12.2827
5.67426 12.0192
5.68594 11.8838
5.69761 11.8216
5.70929 11.6999
5.72097 11.6431
5.73264 11.6188
5.74432 11.5294
5.75599 11.4733
5.76767 11.4736
5.77935 11.5245
5.79103 11.4605
5.8027 11.3954
5.81438 11.3674
5.82606 11.3946
5.83773 11.3603
5.84941 11.3611
5.86109 11.3776
5.87276 11.3669
5.88444 11.3252
5.89612 11.3497
5.9078 11.3772
5.91947 11.3708
5.93115 11.3555
5.94283 11.3199
5.95451 11.3432
5.96618 11.3504
5.97786 11.3922
5.98954 11.3563
6.00122 11.3292
6.0129 11.4225
6.02457 11.4554
6.03625 11.4647
6.04793 11.5717
6.05961 11.6977
6.07129 11.9341
6.08296 12.3458
6.09464 16.1344
6.10632 63.7674
6.118 168.106
6.12968 183.953
6.14136 83.7637
6.15304 19.04
6.16471 12.524
6.17639 11.9274
6.18807 11.6857
6.19975 11.5437
6.21143 11.3944
6.22311 11.3435
6.23479 11.2843
6.24647 11.2512
6.25815 11.2117
6.26983 11.2147
6.28151 11.206
6.29319 11.1986
6.30486 11.1676
6.31654 11.1333
6.32822 11.1116
6.3399 11.1052
6.35158 11.0657
6.36326 11.1105
6.37494 11.0935
6.38662 11.0682
6.3983 11.0534
6.40998 11.0561
6.42166 11.0255
6.43334 10.976
6.44502 11.0504
6.4567 11.0782
6.46839 11.0457
6.48007 11.0575
6.49175 11.025
6.50343 11.0043
6.51511 11.017
6.52679 10.9949
6.53847 10.97
6.55015 10.9915
6.56183 11.0014
6.57351 10.9684
6.58519 10.9664
6.59687 10.971
6.60856 10.974
6.62024 10.9853
6.63192 10.9678
6.6436 10.9708
6.65528 10.9662
6.66696 11.0086
6.67865 11.0154
6.69033 10.9748
6.70201 10.9879
6.71369 11.0168
6.72537 10.9748
6.73705 11.0185
6.74874 10.9925
6.76042 10.9897
6.7721 11.0167
6.78378 10.9669
6.79547 10.9915
6.80715 11.0026
6.81883 11.0006
6.83051 11.0169
6.8422 11.0064
6.85388 11.0026
6.86556 11.0075
6.87724 10.9924
6.88893 11.0193
6.90061 11.0117
6.91229 11.0302
6.92398 11.068
6.93566 11.0863
6.94734 11.092
6.95903 11.1093
6.97071 11.1397
6.98239 11.1338
6.99408 11.1765
7.00576 11.2627
7.01745 11.3286
7.02913 11.4766
7.04081 12.4096
7.0525 25.5573
7.06418 63.0619
7.07586 78.1489
7.08755 51.4951
7.09923 17.898
7.11092 11.8446
7.1226 11.3872
7.13429 11.3082
7.14597 11.2546
7.15766 11.1987
7.16934 11.1461
7.18103 11.1441
7.19271 11.1492
7.2044 11.1121
7.21608 11.1338
7.22777 11.131
7.23945 11.1279
7.25114 11.138
7.26282 11.1493
7.27451 11.1547
7.28619 11.1401
7.29788 11.1609
7.30956 11.175
7.32125 11.1675
7.33293 11.1664
7.34462 11.2079
7.35631 11.1882
7.36799 11.224
7.37968 11.2745
7.39136 11.3368
7.40305 11.3657
7.41474 11.4127
7.42642 11.5283
7.43811 11.6625
7.4498 11.9261
7.46148 12.5105
7.47317 18.4977
7.48486 76.4191
7.49654 178.832
7.50823 192.87
7.51992 103.066
7.5316 24.0189
7.54329 12.9239
7.55498 12.045
7.56667 11.7746
7.57835 11.6433
7.59004 11.4812
7.60173 11.3952
7.61342 11.3223
7.6251 11.3259
7.63679 11.2437
7.64848 11.2393
7.66017 11.2653
7.67186 11.1761
7.68354 11.1542
7.69523 11.1565
7.70692 11.0894
7.71861 11.0393
7.7303 11.074
7.74199 11.0669
7.75367 11.1236
7.76536 11.058
7.77705 11.0901
7.78874 11.1088
7.80043 11.1125
7.81212 11.1813
7.82381 11.1964
7.8355 11.2585
7.84719 11.3658
7.85888 11.5621
7.87056 12.1225
7.88225 20.1556
7.89394 69.479
7.90563 129.618
7.91732 127.509
7.92901 62.7264
7.9407 17.2313
7.95239 11.9698
7.96408 11.5311
7.97577 11.3567
7.98746 11.2185
7.99915 11.1176
8.01084 11.0419
8.02253 11.009
8.03423 10.9393
8.04592 10.9533
8.05761 10.9094
8.0693 10.908
8.08099 10.9051
8.09268 10.8833
8.10437 10.9024
8.11606 10.8998
8.12775 10.8876
8.13944 10.8541
8.15114 10.8728
8.16283 10.9059
8.17452 10.8922
8.18621 10.8957
8.1979 10.93
8.20959 10.9765
8.22129 11.037
8.23298 11.1016
8.24467 11.1709
8.25636 11.4958
8.26805 15.7495
8.27975 43.5295
8.29144 82.0718
8.30313 85.0813
8.31482 49.8666
8.32652 16.5039
8.33821 11.5165
8.3499 11.0627
8.3616 10.9489
8.37329 10.8778
8.38498 10.8419
8.39668 10.8082
8.40837 10.774
8.42006 10.7658
8.43176 10.705
8.44345 10.6557
8.45514 10.6243
8.46684 10.6179
8.47853 10.5917
8.49022 10.5734
8.50192 10.5689
8.51361 10.5797
8.52531 10.5164
8.537 10.4998
8.5487 10.4414
8.56039 10.4538
8.57208 10.4427
8.58378 10.4965
8.59547 10.5312
8.60717 10.5196
8.61886 10.5301
8.63056 10.6586
8.64225 12.5617
8.65395 18.718
8.66564 22.5316
8.67734 20.2153
8.68904 13.2583
8.70073 10.6642
8.71243 10.4173
8.72412 10.444
8.73582 10.4187
8.74751 10.4071
8.75921 10.4118
8.77091 10.4119
8.7826 10.3729
8.7943 10.3762
8.80599 10.3387
8.81769 10.3633
8.82939 10.3446
8.84108 10.3426
8.85278 10.3361
8.86448 10.3243
8.87617 10.2873
8.88787 10.3422
8.89957 10.3791
8.91127 10.3522
8.92296 10.3602
8.93466 10.3819
8.94636 10.3984
8.95806 10.4415
8.96975 10.5299
8.98145 10.7643
8.99315 14.7381
9.00485 33.9851
9.01655 51.8999
9.02824 51.1543
9.03994 29.8972
9.05164 12.475
9.06334 10.6544
9.07504 10.4653
9.08674 10.4394
9.09843 10.408
9.11013 10.3603
9.12183 10.3532
9.13353 10.3511
9.14523 10.3548
9.15693 10.3337
9.16863 10.292
9.18033 10.301
9.19203 10.2631
9.20373 10.3319
9.21543 10.2975
9.22713 10.3034
9.23883 10.3223
9.25053 10.2875
9.26223 10.3564
9.27393 10.3904
9.28563 10.4918
9.29733 10.5186
9.30903 10.7533
9.32073 11.1483
9.33243 16.5994
9.34413 51.2924
9.35583 91.2094
9.36753 95.4726
9.37923 62.6797
9.39093 17.7335
9.40263 11.2282
9.41434 10.6629
9.42604 10.5215
9.43774 10.4315
9.44944 10.3865
9.46114 10.3352
9.47284 10.281
9.48455 10.2529
9.49625 10.2748
9.50795 10.1785
9.51965 10.1589
9.53135 10.1736
9.54306 10.1256
9.55476 10.109
9.56646 10.1682
9.57816 10.1551
9.58987 10.1347
9.60157 10.1519
9.61327 10.1011
9.62498 10.1502
9.63668 10.1443
9.64838 10.0732
9.66009 10.1002
9.67179 10.1555
9.68349 10.1228
9.6952 10.1084
9.7069 10.092
9.7186 10.0857
9.73031 10.1219
9.74201 10.1092
9.75372 10.083
9.76542 10.1009
9.77713 10.0701
9.78883 10.0565
9.80053 10.0707
9.81224 10.0873
9.82394 10.0936
9.83565 10.0651
9.84735 10.0499
9.85906 10.0599
9.87076 10.0927
9.88247 10.0745
9.89418 10.0986
9.90588 10.0867
9.91759 10.1264
9.92929 10.1629
9.941 10.1222
9.9527 10.1755
9.96441 10.2295
9.97612 10.5662
9.98782 14
9.99953 20.8681
10.0112 23.3778
10.0229 21.1484
10.0346 13.6838
10.0464 10.5166
10.0581 10.2292
10.0698 10.1789
10.0815 10.1684
10.0932 10.1832
10.1049 10.161
10.1166 10.2047
10.1283 10.1351
10.14 10.1774
10.1517 10.1783
10.1634 10.2224
10.1751 10.182
10.1868 10.1699
10.1986 10.2421
10.2103 10.2449
10.222 10.3159
10.2337 10.3174
10.2454 10.3437
10.2571 10.4456
10.2688 10.556
10.2805 11.1796
10.2922 19.6757
10.3039 49.7727
10.3156 69.3886
10.3274 68.7915
10.3391 43.9828
10.3508 14.5632
10.3625 10.8609
10.3742 10.5819
10.3859 10.4421
10.3976 10.3439
10.4093 10.333
10.421 10.2777
10.4327 10.2704
10.4445 10.2598
10.4562 10.2538
10.4679 10.2277
10.4796 10.2346
10.4913 10.2317
10.503 10.239
10.5147 10.3101
10.5264 10.2869
10.5381 10.2563
10.5498 10.3445
10.5616 10.4263
10.5733 10.5616
10.585 11.8865
10.5967 25.4157
10.6084 49.704
10.6201 57.613
10.6318 52.4249
10.6435 26.8057
10.6553 11.7771
10.667 10.6276
10.6787 10.4222
10.6904 10.3479
10.7021 10.309
10.7138 10.2689
10.7255 10.2466
10.7372 10.1867
10.749 10.2136
10.7607 10.2163
10.7724 10.1869
10.7841 10.1929
10.7958 10.2061
10.8075 10.1901
10.8192 10.2025
10.831 10.2255
10.8427 10.245
10.8544 10.2951
10.8661 10.2692
10.8778 10.9954
10.8895 16.6136
10.9012 25.4492
10.913 28.0619
10.9247 25.6548
10.9364 16.0296
10.9481 10.6816
10.9598 10.2916
10.9715 10.2385
10.9833 10.2501
10.995 10.2535
11.0067 10.1737
11.0184 10.1582
11.0301 10.1829
11.0418 10.1956
11.0535 10.1601
11.0653 10.1715
11.077 10.1707
11.0887 10.1511
11.1004 10.1644
11.1121 10.1758
11.1238 10.2894
11.1356 10.2706
11.1473 10.3452
11.159 10.7584
11.1707 16.0345
11.1824 28.3862
11.1942 33.7984
11.2059 32.8322
11.2176 23.0789
11.2293 11.916
11.241 10.4513
11.2527 10.3624
11.2645 10.2565
11.2762 10.2242
11.2879 10.2715
11.2996 10.2495
11.3113 10.2575
11.3231 10.2575
11.3348 10.2715
11.3465 10.2384
11.3582 10.2854
11.3699 10.3245
11.3817 10.3211
11.3934 10.2969
11.4051 10.398
11.4168 10.4226
11.4285 10.6945
11.4403 12.8455
11.452 29.7142
11.4637 51.2939
11.4754 56.5105
11.4871 51.7657
11.4989 27.7594
11.5106 11.9435
11.5223 10.668
11.534 10.4992
11.5457 10.4434
11.5575 10.3615
11.5692 10.3186
11.5809 10.3082
11.5926 10.3164
11.6043 10.2375
11.6161 10.2563
11.6278 10.2596
11.6395 10.2562
11.6512 10.2538
11.663 10.2434
11.6747 10.3228
11.6864 10.3309
11.6981 10.3861
11.7098 11.0964
11.7216 17.6312
11.7333 27.9349
11.745 31.1943
11.7567 29.7213
11.7685 20.383
11.7802 11.3755
11.7919 10.4321
11.8036 10.3204
11.8154 10.2441
11.8271 10.2393
11.8388 10.2365
11.8505 10.2074
11.8623 10.182
11.874 10.2404
11.8857 10.2455
11.8974 10.1691
11.9092 10.245
11.9209 10.1797
11.9326 10.2028
11.9443 10.1209
11.9561 10.1361
11.9678 10.1229
11.9795 10.1485
11.9912 10.2048
12.003 10.1716
12.0147 10.1557
12.0264 10.1697
12.0381 10.1753
12.0499 10.1765
12.0616 10.1959
12.0733 10.1834
12.0851 10.1974
12.0968 10.1852
12.1085 10.1865
12.1202 10.1973
12.132 10.1871
12.1437 10.1944
12.1554 10.2566
12.1671 10.2653
12.1789 10.2458
12.1906 10.3014
12.2023 10.3701
12.2141 10.3763
12.2258 10.4396
12.2375 11.2469
12.2492 15.7226
12.261 20.1859
12.2727 21.2117
12.2844 19.7305
12.2962 14.1572
12.3079 10.7555
12.3196 10.4208
12.3313 10.3662
12.3431 10.3383
12.3548 10.3782
12.3665 10.376
12.3783 10.3702
12.39 10.3669
12.4017 10.3452
12.4135 10.3832
12.4252 10.443
12.4369 10.4373
12.4487 10.4178
12.4604 10.4272
12.4721 10.4358
12.4838 10.6137
12.4956 12.394
12.5073 17.6334
12.519 20.7878
12.5308 21.0564
12.5425 18.6107
12.5542 12.707
12.566 10.6822
12.5777 10.5675
12.5894 10.4934
12.6012 10.4621
12.6129 10.5455
12.6246 10.545
12.6364 10.4841
12.6481 10.5531
12.6598 10.5458
12.6716 10.524
12.6833 10.565
12.695 10.6597
12.7068 10.7718
12.7185 10.7817
12.7302 11.1424
12.742 15.7067
12.7537 35.2097
12.7654 49.2301
12.7772 51.2746
12.7889 46.9023
12.8006 26.5077
12.8124 12.223
12.8241 10.9837
12.8358 10.8581
12.8476 10.7571
12.8593 10.7413
12.8711 10.721
12.8828 10.6891
12.8945 10.6644
12.9063 10.6613
12.918 10.6595
12.9297 10.657
12.9415 10.6997
12.9532 10.7447
12.9649 10.7852
12.9767 11.0489
12.9884 13.7734
13.0002 22.6273
13.0119 27.7436
13.0236 28.3571
13.0354 25.5604
13.0471 16.108
13.0588 11.2053
13.0706 10.7944
13.0823 10.7426
13.0941 10.7555
13.1058 10.7227
13.1175 10.6882
13.1293 10.6683
13.141 10.6189
13.1528 10.6004
13.1645 10.667
13.1762 10.6666
13.188 10.601
13.1997 10.5703
13.2115 10.6071
13.2232 10.6055
13.2349 10.5952
13.2467 10.6494
13.2584 10.6527
13.2702 10.652
13.2819 10.6663
13.2936 10.6584
13.3054 10.6452
13.3171 10.6496
13.3289 10.683
13.3406 10.7293
13.3523 10.6972
13.3641 10.7003
13.3758 10.7204
13.3876 10.7469
13.3993 10.7356
13.411 10.7943
13.4228 10.8105
13.4345 10.8718
13.4463 11.0282
13.458 12.3357
13.4698 22.7452
13.4815 36.5479
13.4932 40.2932
13.505 39.7872
13.5167 31.7542
13.5285 15.3839
13.5402 11.2379
13.552 10.9781
13.5637 10.9145
13.5755 10.8992
13.5872 10.8263
13.5989 10.8329
13.6107 10.7599
13.6224 10.7488
13.6342 10.782
13.6459 10.763
13.6577 10.7936
13.6694 10.7929
13.6812 10.8591
13.6929 11.782
13.7046 16.1324
13.7164 20.3928
13.7281 21.3942
13.7399 20.689
13.7516 16.6623
13.7634 11.7131
13.7751 10.8764
13.7869 10.8514
13.7986 10.8187
13.8104 10.8093
13.8221 10.7908
13.8339 10.7958
13.8456 10.8016
13.8574 10.7636
13.8691 10.7495
13.8809 10.7172
13.8926 10.8021
13.9043 10.7733
13.9161 10.7597
13.9278 10.7454
13.9396 10.8343
13.9513 10.761
13.9631 10.7337
13.9748 10.7365
13.9866 10.7605
13.9983 10.7499
14.0101 10.7338
14.0218 10.778
14.0336 10.8183
14.0453 10.8111
14.0571 10.828
14.0688 10.8259
14.0806 10.8714
14.0923 10.8505
14.1041 10.8886
14.1158 10.86
14.1276 10.8921
14.1393 11.0151
14.1511 12.0939
14.1628 14.6882
14.1746 16.1101
14.1864 16.2268
14.1981 15.3272
14.2099 12.6675
14.2216 11.1143
14.2334 10.9542
14.2451 10.9041
14.2569 10.9274
14.2686 10.9741
14.2804 10.9567
14.2921 10.9316
14.3039 10.9374
14.3156 10.9823
14.3274 11.0407
14.3391 11.0695
14.3509 11.1584
14.3626 11.796
14.3744 17.382
14.3862 26.4485
14.3979 29.4321
14.4097 29.5505
14.4214 26.331
14.4332 16.4855
14.4449 11.5439
14.4567 11.1103
14.4684 11.1033
14.4802 11.0736
14.4919 11.0243
14.5037 11.0256
14.5155 11.0151
14.5272 11.0334
14.539 11.0714
14.5507 11.0902
14.5625 11.152
14.5742 11.234
14.586 13.2962
14.5978 21.5303
14.6095 27.5908
14.6213 28.8951
14.633 28.1007
14.6448 22.3935
14.6565 13.2941
14.6683 11.3065
14.6801 11.2398
14.6918 11.1553
14.7036 11.1543
14.7153 11.0854
14.7271 11.0846
14.7389 11.063
14.7506 11.0722
14.7624 11.0339
14.7741 11.1059
14.7859 11.1793
14.7977 11.9773
14.8094 17.165
14.8212 23.2459
14.8329 25.0229
14.8447 24.8824
14.8565 21.8839
14.8682 14.4353
14.88 11.3513
14.8917 11.1714
14.9035 11.1179
14.9153 11.1165
14.927 11.0402
14.9388 11.0271
14.9505 11.004
14.9623 11.0821
14.9741 11.1285
14.9858 11.1264
14.9976 11.1593
15.0094 11.6828
15.0211 14.5839
15.0329 18.1099
15.0446 19.168
15.0564 19.0318
15.0682 17.1335
15.0799 12.9784
15.0917 11.2836
15.1035 11.1374
15.1152 11.0917
15.127 11.1048
15.1388 11.1341
15.1505 11.1777
15.1623 11.1305
15.174 11.1553
15.1858 11.1627
15.1976 11.1614
15.2093 11.2047
15.2211 11.7801
15.2329 13.5964
15.2446 15.2514
15.2564 15.5153
15.2682 15.3712
15.2799 13.9329
15.2917 11.8017
15.3035 11.2022
15.3152 11.1395
15.327 11.1895
15.3388 11.1803
15.3505 11.1095
15.3623 11.223
15.3741 11.2424
15.3858 11.2614
15.3976 11.3813
15.4094 11.2692
15.4211 11.7938
15.4329 15.7978
15.4447 22.2223
15.4565 24.505
15.4682 24.6565
15.48 22.9677
15.4918 16.5151
15.5035 11.9462
15.5153 11.3459
15.5271 11.3867
15.5388 11.37
15.5506 11.2918
15.5624 11.2676
15.5741 11.2105
15.5859 11.2292
15.5977 11.205
15.6095 11.2052
15.6212 11.1579
15.633 11.2405
15.6448 11.2555
15.6565 11.2655
15.6683 11.2181
15.6801 11.2775
15.6919 11.2512
15.7036 11.257
15.7154 11.2877
15.7272 11.2179
15.7389 11.2063
15.7507 11.2908
15.7625 11.2971
15.7743 11.3131
15.786 11.368
15.7978 11.3146
15.8096 11.2152
15.8214 11.3621
15.8331 12.2283
15.8449 14.7947
15.8567 16.2696
15.8685 16.6138
15.8802 16.3456
15.892 14.546
15.9038 11.9019
15.9156 11.3985
15.9273 11.2752
15.9391 11.3051
15.9509 11.3069
15.9627 11.2774
15.9744 11.41
15.9862 11.4494
15.998 11.5022
16.0098 11.5823
16.0215 11.935
16.0333 15.7281
16.0451 24.6698
16.0569 28.7383
16.0687 29.239
16.0804 28.2986
16.0922 21.5397
16.104 13.1503
16.1158 11.637
16.1275 11.5093
16.1393 11.4352
16.1511 11.4056
16.1629 11.4554
16.1747 11.4259
16.1864 11.447
16.1982 11.3331
16.21 11.4001
16.2218 11.7858
16.2336 13.822
16.2453 16.8639
16.2571 17.9844
16.2689 17.851
16.2807 16.9163
16.2925 13.7895
16.3042 11.6161
16.316 11.4728
16.3278 11.3673
16.3396 11.289
16.3514 11.2444
16.3631 11.3449
16.3749 11.3308
16.3867 11.3527
16.3985 11.093
16.4103 11.1223
16.4221 12.0348
16.4338 13.6179
16.4456 14.4736
16.4574 14.745
16.4692 14.4638
16.481 13.4214
16.4928 11.738
16.5045 11.25
16.5163 11.0444
16.5281 10.8651
16.5399 11.0722
16.5517 11.2186
16.5635 11.3431
16.5752 11.2174
16.587 11.1349
16.5988 11.4903
16.6106 11.5631
16.6224 12.6344
16.6342 13.9712
16.646 14.2319
16.6577 13.8368
16.6695 13.4048
16.6813 11.8687