File: examples/data/28ID-2-C-XRD/far-field-detector/Air-scattering/img.xy
1.07717 12.1986
1.08883 12.0959
1.10049 12.1079
1.11216 12.1391
1.12382 12.0133
1.13548 12.0848
1.14714 11.9945
1.15881 11.9783
1.17047 11.9864
1.18213 11.9613
1.19379 11.8883
1.20546 11.8869
1.21712 11.7977
1.22878 11.7287
1.24044 11.7881
1.25211 11.6533
1.26377 11.6401
1.27543 11.6379
1.2871 11.59
1.29876 11.5423
1.31042 11.456
1.32208 11.4539
1.33375 11.3762
1.34541 11.3248
1.35707 11.3362
1.36873 11.2968
1.3804 11.2538
1.39206 11.312
1.40372 11.1913
1.41538 11.1959
1.42705 11.103
1.43871 11.0813
1.45037 11.074
1.46204 10.9672
1.4737 10.9621
1.48536 10.8999
1.49702 10.8854
1.50869 10.8685
1.52035 10.7843
1.53201 10.8069
1.54368 10.7558
1.55534 10.6949
1.567 10.6061
1.57867 10.6037
1.59033 10.5549
1.60199 10.5252
1.61365 10.4328
1.62532 10.3915
1.63698 10.3463
1.64864 10.3287
1.66031 10.2975
1.67197 10.2107
1.68363 10.1736
1.6953 10.1655
1.70696 10.1464
1.71862 10.119
1.73029 10.0727
1.74195 10.0265
1.75361 9.98114
1.76528 9.96519
1.77694 9.91579
1.7886 9.83753
1.80027 9.78286
1.81193 9.72629
1.82359 9.73889
1.83526 9.76014
1.84692 9.66769
1.85858 9.6559
1.87025 9.56655
1.88191 9.59163
1.89357 9.51449
1.90524 9.48109
1.9169 9.4442
1.92856 9.4578
1.94023 9.3992
1.95189 9.22535
1.96355 9.19742
1.97522 9.20167
1.98688 9.13747
1.99855 9.08252
2.01021 9.03976
2.02187 9.05644
2.03354 8.98944
2.0452 8.92891
2.05686 8.91166
2.06853 8.91042
2.08019 8.88144
2.09186 8.79946
2.10352 8.72127
2.11518 8.75742
2.12685 8.72295
2.13851 8.68427
2.15017 8.66635
2.16184 8.60812
2.1735 8.57173
2.18517 8.49601
2.19683 8.47844
2.20849 8.41988
2.22016 8.35591
2.23182 8.38373
2.24349 8.31765
2.25515 8.28475
2.26682 8.23611
2.27848 8.21117
2.29014 8.13601
2.30181 8.13151
2.31347 8.07089
2.32514 8.06061
2.3368 7.9714
2.34847 7.89754
2.36013 7.87381
2.37179 7.88912
2.38346 7.85218
2.39512 7.86769
2.40679 7.78938
2.41845 7.77483
2.43012 7.68477
2.44178 7.64117
2.45345 7.59522
2.46511 7.60514
2.47677 7.60078
2.48844 7.51703
2.5001 7.5396
2.51177 7.52791
2.52343 7.46338
2.5351 7.41611
2.54676 7.34686
2.55843 7.34442
2.57009 7.29761
2.58176 7.2406
2.59342 7.23538
2.60509 7.17673
2.61675 7.17711
2.62842 7.12721
2.64008 7.07649
2.65175 7.03591
2.66341 6.9859
2.67508 6.95999
2.68674 6.91107
2.69841 6.90374
2.71007 6.8751
2.72174 6.82077
2.7334 6.75637
2.74507 6.74813
2.75673 6.72434
2.7684 6.68348
2.78006 6.64003
2.79173 6.62715
2.80339 6.59635
2.81506 6.53021
2.82673 6.44673
2.83839 6.43121
2.85006 6.42133
2.86172 6.37771
2.87339 6.42156
2.88505 6.36729
2.89672 6.32981
2.90838 6.27321
2.92005 6.27132
2.93172 6.2046
2.94338 6.1693
2.95505 6.18064
2.96671 6.12972
2.97838 6.14233
2.99004 6.05577
3.00171 6.0233
3.01338 6.01119
3.02504 5.91885
3.03671 5.87499
3.04837 5.88045
3.06004 5.88633
3.07171 5.86796
3.08337 5.83481
3.09504 5.7689
3.1067 5.78304
3.11837 5.70208
3.13004 5.73341
3.1417 5.63853
3.15337 5.67204
3.16504 5.62659
3.1767 5.54829
3.18837 5.56577
3.20004 5.53541
3.2117 5.4418
3.22337 5.46382
3.23503 5.41724
3.2467 5.36683
3.25837 5.34804
3.27003 5.32573
3.2817 5.27248
3.29337 5.28755
3.30503 5.25209
3.3167 5.19761
3.32837 5.20568
3.34003 5.15955
3.3517 5.10507
3.36337 5.09965
3.37504 5.11003
3.3867 5.12284
3.39837 5.10041
3.41004 5.02496
3.4217 4.96963
3.43337 4.9897
3.44504 4.91845
3.45671 4.88498
3.46837 4.83604
3.48004 4.83659
3.49171 4.88256
3.50337 4.78236
3.51504 4.8047
3.52671 4.79446
3.53838 4.75999
3.55004 4.71735
3.56171 4.68287
3.57338 4.68429
3.58505 4.70464
3.59671 4.68165
3.60838 4.6485
3.62005 4.60783
3.63172 4.59024
3.64339 4.53171
3.65505 4.49113
3.66672 4.47117
3.67839 4.48155
3.69006 4.44838
3.70172 4.44313
3.71339 4.41081
3.72506 4.3428
3.73673 4.36435
3.7484 4.35545
3.76007 4.32827
3.77173 4.29044
3.7834 4.28745
3.79507 4.30247
3.80674 4.25141
3.81841 4.24039
3.83007 4.22133
3.84174 4.19846
3.85341 4.13573
3.86508 4.08948
3.87675 4.14025
3.88842 4.09401
3.90009 4.07844
3.91175 4.08216
3.92342 4.02908
3.93509 4.02745
3.94676 3.99515
3.95843 3.95323
3.9701 3.97096
3.98177 3.92769
3.99344 3.93786
4.00511 3.92783
4.01677 3.86855
4.02844 3.82128
4.04011 3.8503
4.05178 3.85745
4.06345 3.78921
4.07512 3.80246
4.08679 3.80512
4.09846 3.81408
4.11013 3.74121
4.1218 3.74368
4.13347 3.69059
4.14514 3.60242
4.15681 3.66731
4.16848 3.63035
4.18015 3.62744
4.19182 3.58988
4.20349 3.57787
4.21515 3.57433
4.22682 3.55941
4.23849 3.50541
4.25016 3.46821
4.26183 3.5124
4.2735 3.49424
4.28517 3.45534
4.29684 3.46837
4.30851 3.4505
4.32018 3.45465
4.33185 3.42806
4.34353 3.41771
4.3552 3.42504
4.36687 3.33287
4.37854 3.34499
4.39021 3.37947
4.40188 3.37028
4.41355 3.31006
4.42522 3.32285
4.43689 3.24354
4.44856 3.26683
4.46023 3.20478
4.4719 3.22505
4.48357 3.26938
4.49524 3.21232
4.50691 3.14486
4.51858 3.14567
4.53026 3.18109
4.54193 3.10298
4.5536 3.13324
4.56527 3.12373
4.57694 3.11047
4.58861 3.08394
4.60028 3.08102
4.61195 3.04747
4.62363 3.0351
4.6353 3.01868
4.64697 3.03703
4.65864 3.02236
4.67031 3.02609
4.68198 3.04278
4.69365 2.99912
4.70533 2.98809
4.717 2.966
4.72867 2.889
4.74034 2.94173
4.75201 2.9143
4.76369 2.88393
4.77536 2.9162
4.78703 2.88446
4.7987 2.87952
4.81037 2.8329
4.82205 2.84499
4.83372 2.83646
4.84539 2.83345
4.85706 2.81699
4.86874 2.79794
4.88041 2.78915
4.89208 2.82207
4.90375 2.7943
4.91543 2.77954
4.9271 2.74911
4.93877 2.7509
4.95044 2.74515
4.96212 2.69772
4.97379 2.67993
4.98546 2.68748
4.99714 2.71072
5.00881 2.68572
5.02048 2.6798
5.03215 2.67777
5.04383 2.67752
5.0555 2.66325
5.06717 2.646
5.07885 2.65012
5.09052 2.65025
5.10219 2.61938
5.11387 2.62342
5.12554 2.6393
5.13721 2.59238
5.14889 2.60546
5.16056 2.58316
5.17224 2.57073
5.18391 2.56049
5.19558 2.58764
5.20726 2.56275
5.21893 2.56008
5.23061 2.53735
5.24228 2.54942
5.25395 2.50684
5.26563 2.57057
5.2773 2.52299
5.28898 2.49033
5.30065 2.48036
5.31233 2.48722
5.324 2.46666
5.33567 2.42847
5.34735 2.44724
5.35902 2.45472
5.3707 2.43056
5.38237 2.49168
5.39405 2.45587
5.40572 2.42802
5.4174 2.41053
5.42907 2.39806
5.44075 2.38251
5.45242 2.36385
5.4641 2.3971
5.47577 2.39135
5.48745 2.35682
5.49912 2.35438
5.5108 2.38056
5.52247 2.33927
5.53415 2.3577
5.54583 2.35579
5.5575 2.32454
5.56918 2.3138
5.58085 2.326
5.59253 2.34612
5.6042 2.31804
5.61588 2.34758
5.62756 2.27288
5.63923 2.29978
5.65091 2.2882
5.66258 2.24978
5.67426 2.2624
5.68594 2.28955
5.69761 2.26111
5.70929 2.22907
5.72097 2.23355
5.73264 2.23999
5.74432 2.21971
5.75599 2.21629
5.76767 2.18973
5.77935 2.2212
5.79103 2.20895
5.8027 2.19309
5.81438 2.23889
5.82606 2.19647
5.83773 2.21689
5.84941 2.19341
5.86109 2.16481
5.87276 2.16012
5.88444 2.17327
5.89612 2.16179
5.9078 2.11978
5.91947 2.10409
5.93115 2.11905
5.94283 2.12602
5.95451 2.12396
5.96618 2.09751
5.97786 2.15345
5.98954 2.13227
6.00122 2.09931
6.0129 2.08018
6.02457 2.11587
6.03625 2.12278
6.04793 2.13627
6.05961 2.12647
6.07129 2.07541
6.08296 2.07505
6.09464 2.08314
6.10632 2.06629
6.118 2.08915
6.12968 2.09839
6.14136 2.11971
6.15304 2.07362
6.16471 2.03455
6.17639 2.05538
6.18807 2.0403
6.19975 2.03253
6.21143 2.04375
6.22311 2.06628
6.23479 2.07938
6.24647 2.0706
6.25815 2.05812
6.26983 2.03339
6.28151 2.03398
6.29319 2.00709
6.30486 2.02505
6.31654 2.04711
6.32822 2.02261
6.3399 2.00514
6.35158 2.03752
6.36326 1.99647
6.37494 1.95401
6.38662 2.05458
6.3983 2.01672
6.40998 2.0082
6.42166 2.02462
6.43334 2.00949
6.44502 2.03655
6.4567 1.9794
6.46839 1.98689
6.48007 1.96183
6.49175 2.00743
6.50343 1.99805
6.51511 1.97995
6.52679 1.98094
6.53847 1.96756
6.55015 1.9566
6.56183 1.95082
6.57351 1.95658
6.58519 1.94999
6.59687 1.95571
6.60856 1.96495
6.62024 1.94046
6.63192 1.92304
6.6436 1.97342
6.65528 1.91144
6.66696 1.92714
6.67865 1.94974
6.69033 1.92743
6.70201 1.97653
6.71369 1.95201
6.72537 1.90252
6.73705 1.91645
6.74874 1.94409
6.76042 1.92666
6.7721 1.93856
6.78378 1.9509
6.79547 1.95126
6.80715 1.9202
6.81883 1.92389
6.83051 1.91645
6.8422 1.92513
6.85388 1.90249
6.86556 1.91601
6.87724 1.94583
6.88893 1.94502
6.90061 1.95877
6.91229 1.94431
6.92398 1.87492
6.93566 1.91179
6.94734 1.92005
6.95903 1.95211
6.97071 1.94174
6.98239 1.89978
6.99408 1.90166
7.00576 1.91206
7.01745 1.87637
7.02913 1.83497
7.04081 1.85526
7.0525 1.89259
7.06418 1.88227
7.07586 1.86906
7.08755 1.87678
7.09923 1.90808
7.11092 1.90384
7.1226 1.89937
7.13429 1.89228
7.14597 1.86165
7.15766 1.88085
7.16934 1.89106
7.18103 1.85746
7.19271 1.84774
7.2044 1.86314
7.21608 1.8642
7.22777 1.8454
7.23945 1.84342
7.25114 1.84995
7.26282 1.82307
7.27451 1.87131
7.28619 1.86607
7.29788 1.87113
7.30956 1.84927
7.32125 1.86252
7.33293 1.86587
7.34462 1.89056
7.35631 1.88489
7.36799 1.8898
7.37968 1.88059
7.39136 1.84345
7.40305 1.86689
7.41474 1.86376
7.42642 1.87213
7.43811 1.85201
7.4498 1.86156
7.46148 1.84158
7.47317 1.83944
7.48486 1.8435
7.49654 1.86178
7.50823 1.8446
7.51992 1.84822
7.5316 1.80553
7.54329 1.81273
7.55498 1.84355
7.56667 1.85616
7.57835 1.83947
7.59004 1.84314
7.60173 1.81496
7.61342 1.81417
7.6251 1.80762
7.63679 1.8333
7.64848 1.83215
7.66017 1.86672
7.67186 1.81739
7.68354 1.80304
7.69523 1.88008
7.70692 1.86037
7.71861 1.82947
7.7303 1.78016
7.74199 1.82186
7.75367 1.82069
7.76536 1.84907
7.77705 1.82764
7.78874 1.8215
7.80043 1.80964
7.81212 1.84318
7.82381 1.82948
7.8355 1.82286
7.84719 1.8552
7.85888 1.86536
7.87056 1.84276
7.88225 1.82365
7.89394 1.82031
7.90563 1.8376
7.91732 1.81818
7.92901 1.83919
7.9407 1.82038
7.95239 1.80583
7.96408 1.7752
7.97577 1.78943
7.98746 1.81014
7.99915 1.80503
8.01084 1.79307
8.02253 1.78694
8.03423 1.79321
8.04592 1.81115
8.05761 1.81138
8.0693 1.76201
8.08099 1.75932
8.09268 1.77758
8.10437 1.78786
8.11606 1.76377
8.12775 1.76265
8.13944 1.7878
8.15114 1.82905
8.16283 1.76949
8.17452 1.76815
8.18621 1.78366
8.1979 1.77028
8.20959 1.78957
8.22129 1.78318
8.23298 1.74365
8.24467 1.75147
8.25636 1.75446
8.26805 1.77329
8.27975 1.76524
8.29144 1.76359
8.30313 1.79517
8.31482 1.75837
8.32652 1.74444
8.33821 1.74449
8.3499 1.79594
8.3616 1.77881
8.37329 1.74983
8.38498 1.72759
8.39668 1.77292
8.40837 1.78189
8.42006 1.74802
8.43176 1.74314
8.44345 1.74542
8.45514 1.76592
8.46684 1.75925
8.47853 1.76778
8.49022 1.78804
8.50192 1.75858
8.51361 1.74499
8.52531 1.71134
8.537 1.78744
8.5487 1.71762
8.56039 1.7684
8.57208 1.7926
8.58378 1.71338
8.59547 1.73582
8.60717 1.68608
8.61886 1.75309
8.63056 1.74984
8.64225 1.74254
8.65395 1.69606
8.66564 1.71221
8.67734 1.73831
8.68904 1.75351
8.70073 1.75422
8.71243 1.71949
8.72412 1.73097
8.73582 1.74968
8.74751 1.74453
8.75921 1.77875
8.77091 1.75883
8.7826 1.73667
8.7943 1.72415
8.80599 1.75746
8.81769 1.7171
8.82939 1.69557
8.84108 1.76441
8.85278 1.73174
8.86448 1.74049
8.87617 1.69254
8.88787 1.71461
8.89957 1.75492
8.91127 1.72368
8.92296 1.72504
8.93466 1.7201
8.94636 1.75336
8.95806 1.74066
8.96975 1.72125
8.98145 1.73477
8.99315 1.7022
9.00485 1.69675
9.01655 1.72958
9.02824 1.73398
9.03994 1.71715
9.05164 1.75282
9.06334 1.68907
9.07504 1.74018
9.08674 1.70579
9.09843 1.68965
9.11013 1.73037
9.12183 1.74826
9.13353 1.72884
9.14523 1.68521
9.15693 1.71982
9.16863 1.69999
9.18033 1.73272
9.19203 1.72889
9.20373 1.67689
9.21543 1.672
9.22713 1.6628
9.23883 1.67931
9.25053 1.67935
9.26223 1.66675
9.27393 1.7075
9.28563 1.6871
9.29733 1.69043
9.30903 1.68345
9.32073 1.63838
9.33243 1.65605
9.34413 1.66145
9.35583 1.66471
9.36753 1.66267
9.37923 1.68563
9.39093 1.67629
9.40263 1.6925
9.41434 1.69858
9.42604 1.69249
9.43774 1.63899
9.44944 1.66339
9.46114 1.69296
9.47284 1.66925
9.48455 1.66507
9.49625 1.70234
9.50795 1.64806
9.51965 1.65258
9.53135 1.62364
9.54306 1.64415
9.55476 1.63461
9.56646 1.60715
9.57816 1.6354
9.58987 1.67918
9.60157 1.62464
9.61327 1.63321
9.62498 1.66891
9.63668 1.64718
9.64838 1.62958
9.66009 1.61737
9.67179 1.61387
9.68349 1.65102
9.6952 1.63524
9.7069 1.67289
9.7186 1.64393
9.73031 1.64146
9.74201 1.64562
9.75372 1.63235
9.76542 1.65182
9.77713 1.64546
9.78883 1.63236
9.80053 1.67257
9.81224 1.62306
9.82394 1.60981
9.83565 1.63999
9.84735 1.70342
9.85906 1.65726
9.87076 1.66113
9.88247 1.63928
9.89418 1.65595
9.90588 1.64552
9.91759 1.61988
9.92929 1.60948
9.941 1.62618
9.9527 1.62219
9.96441 1.59531
9.97612 1.61685
9.98782 1.62139
9.99953 1.64142
10.0112 1.63932
10.0229 1.62617
10.0346 1.59598
10.0464 1.63939
10.0581 1.64486
10.0698 1.59898
10.0815 1.62973
10.0932 1.62086
10.1049 1.62463
10.1166 1.67187
10.1283 1.67713
10.14 1.65263
10.1517 1.66454
10.1634 1.63592
10.1751 1.65895
10.1868 1.63751
10.1986 1.68065
10.2103 1.67293
10.222 1.62668
10.2337 1.63371
10.2454 1.6189
10.2571 1.63496
10.2688 1.62244
10.2805 1.61838
10.2922 1.64193
10.3039 1.62805
10.3156 1.60327
10.3274 1.57481
10.3391 1.59958
10.3508 1.66071
10.3625 1.6708
10.3742 1.67205
10.3859 1.67963
10.3976 1.64732
10.4093 1.65187
10.421 1.59109
10.4327 1.59106
10.4445 1.67319
10.4562 1.67663
10.4679 1.69169
10.4796 1.64412
10.4913 1.61938
10.503 1.65022
10.5147 1.57592
10.5264 1.62321
10.5381 1.64945
10.5498 1.65433
10.5616 1.61578
10.5733 1.61242
10.585 1.66553
10.5967 1.65498
10.6084 1.64573
10.6201 1.66754
10.6318 1.65445
10.6435 1.62613
10.6553 1.62295
10.667 1.63995
10.6787 1.61808
10.6904 1.66917
10.7021 1.66368
10.7138 1.67965
10.7255 1.66449
10.7372 1.66994
10.749 1.64368
10.7607 1.64001
10.7724 1.62376
10.7841 1.68511
10.7958 1.68852
10.8075 1.66495
10.8192 1.67301
10.831 1.64677
10.8427 1.67002
10.8544 1.62271
10.8661 1.64103
10.8778 1.67274
10.8895 1.68603
10.9012 1.65677
10.913 1.62967
10.9247 1.62834
10.9364 1.68151
10.9481 1.67963
10.9598 1.6178
10.9715 1.61965
10.9833 1.64821
10.995 1.63457
11.0067 1.67707
11.0184 1.63695
11.0301 1.63562
11.0418 1.61832
11.0535 1.56786
11.0653 1.60974
11.077 1.60078
11.0887 1.61875
11.1004 1.63582
11.1121 1.65102
11.1238 1.60748
11.1356 1.64262
11.1473 1.65703
11.159 1.64812
11.1707 1.67502
11.1824 1.6513
11.1942 1.64098
11.2059 1.66947
11.2176 1.64346
11.2293 1.62172
11.241 1.61473
11.2527 1.62196
11.2645 1.63905
11.2762 1.64076
11.2879 1.64343
11.2996 1.64183
11.3113 1.62419
11.3231 1.63807
11.3348 1.64688
11.3465 1.65251
11.3582 1.64479
11.3699 1.61085
11.3817 1.66101
11.3934 1.63499
11.4051 1.58776
11.4168 1.58196
11.4285 1.64064
11.4403 1.64711
11.452 1.62736
11.4637 1.61519
11.4754 1.60916
11.4871 1.62533
11.4989 1.6357
11.5106 1.64115
11.5223 1.62657
11.534 1.5947
11.5457 1.61108
11.5575 1.61324
11.5692 1.59646
11.5809 1.60968
11.5926 1.61764
11.6043 1.63051
11.6161 1.60903
11.6278 1.5843
11.6395 1.61211
11.6512 1.61021
11.663 1.62618
11.6747 1.63363
11.6864 1.64457
11.6981 1.59533
11.7098 1.61754
11.7216 1.63635
11.7333 1.6675
11.745 1.63989
11.7567 1.62892
11.7685 1.62479
11.7802 1.59482
11.7919 1.6004
11.8036 1.63167
11.8154 1.6218
11.8271 1.63746
11.8388 1.62421
11.8505 1.56128
11.8623 1.5775
11.874 1.62347
11.8857 1.65298
11.8974 1.62682
11.9092 1.61881
11.9209 1.60386
11.9326 1.59436
11.9443 1.58861
11.9561 1.58607
11.9678 1.61909
11.9795 1.62888
11.9912 1.58326
12.003 1.59182
12.0147 1.59111
12.0264 1.60717
12.0381 1.62142
12.0499 1.64744
12.0616 1.64597
12.0733 1.64253
12.0851 1.60415
12.0968 1.5986
12.1085 1.62057
12.1202 1.59743
12.132 1.63792
12.1437 1.6232
12.1554 1.625
12.1671 1.61543
12.1789 1.61165
12.1906 1.58355
12.2023 1.61981
12.2141 1.66836
12.2258 1.64483
12.2375 1.62971
12.2492 1.66434
12.261 1.65324
12.2727 1.63698
12.2844 1.66129
12.2962 1.67744
12.3079 1.60439
12.3196 1.61908
12.3313 1.68516
12.3431 1.67463
12.3548 1.64675
12.3665 1.62604
12.3783 1.6916
12.39 1.63479
12.4017 1.63962
12.4135 1.6304
12.4252 1.6017
12.4369 1.63656
12.4487 1.62907
12.4604 1.5972
12.4721 1.64831
12.4838 1.63583
12.4956 1.61104
12.5073 1.62153
12.519 1.63315
12.5308 1.6179
12.5425 1.61777
12.5542 1.60046
12.566 1.60865
12.5777 1.63525
12.5894 1.63742
12.6012 1.6438
12.6129 1.67241
12.6246 1.63566
12.6364 1.59465
12.6481 1.62127
12.6598 1.64311
12.6716 1.61408
12.6833 1.63041
12.695 1.62632
12.7068 1.59637
12.7185 1.60175
12.7302 1.60483
12.742 1.62662
12.7537 1.60834
12.7654 1.60204
12.7772 1.59991
12.7889 1.60455
12.8006 1.58713
12.8124 1.60234
12.8241 1.55887
12.8358 1.60551
12.8476 1.6429
12.8593 1.57481
12.8711 1.63746
12.8828 1.63268
12.8945 1.63746
12.9063 1.59694
12.918 1.59883
12.9297 1.59598
12.9415 1.61496
12.9532 1.60472
12.9649 1.60769
12.9767 1.60925
12.9884 1.64148
13.0002 1.61905
13.0119 1.63389
13.0236 1.61504
13.0354 1.61452
13.0471 1.61932
13.0588 1.60002
13.0706 1.58588
13.0823 1.65788
13.0941 1.56025
13.1058 1.63148
13.1175 1.62438
13.1293 1.61928
13.141 1.60545
13.1528 1.59247
13.1645 1.61111
13.1762 1.64674
13.188 1.64328
13.1997 1.58107
13.2115 1.59601
13.2232 1.62231
13.2349 1.61752
13.2467 1.61273
13.2584 1.6451
13.2702 1.60921
13.2819 1.55176
13.2936 1.59292
13.3054 1.60364
13.3171 1.61098
13.3289 1.60885
13.3406 1.59963
13.3523 1.55651
13.3641 1.56437
13.3758 1.6392
13.3876 1.59218
13.3993 1.61376
13.411 1.60528
13.4228 1.56982
13.4345 1.5806
13.4463 1.58776
13.458 1.62278
13.4698 1.59482
13.4815 1.62422
13.4932 1.5807
13.505 1.5938
13.5167 1.5827
13.5285 1.5981
13.5402 1.60615
13.552 1.56732
13.5637 1.61089
13.5755 1.64325
13.5872 1.5872
13.5989 1.57069
13.6107 1.63339
13.6224 1.6195
13.6342 1.59915
13.6459 1.65391
13.6577 1.62831
13.6694 1.59531
13.6812 1.60774
13.6929 1.6232
13.7046 1.61535
13.7164 1.60804
13.7281 1.62969
13.7399 1.61576
13.7516 1.64439
13.7634 1.62886
13.7751 1.60643
13.7869 1.60473
13.7986 1.61936
13.8104 1.61433
13.8221 1.6096
13.8339 1.64547
13.8456 1.62054
13.8574 1.59426
13.8691 1.59345
13.8809 1.61411
13.8926 1.63829
13.9043 1.66533
13.9161 1.63171
13.9278 1.58892
13.9396 1.64619
13.9513 1.65785
13.9631 1.63005
13.9748 1.6006
13.9866 1.59719
13.9983 1.62541
14.0101 1.5944
14.0218 1.63476
14.0336 1.62935
14.0453 1.61934
14.0571 1.63849
14.0688 1.63582
14.0806 1.6295
14.0923 1.6846
14.1041 1.6265
14.1158 1.61848
14.1276 1.63943
14.1393 1.67777
14.1511 1.64184
14.1628 1.64383
14.1746 1.66171
14.1864 1.60744
14.1981 1.66987
14.2099 1.72965
14.2216 1.68107
14.2334 1.68087
14.2451 1.65356
14.2569 1.72636
14.2686 1.69401
14.2804 1.70038
14.2921 1.69456
14.3039 1.71626
14.3156 1.69486
14.3274 1.63415
14.3391 1.63376
14.3509 1.67442
14.3626 1.67399
14.3744 1.67695
14.3862 1.69104
14.3979 1.67942
14.4097 1.71269
14.4214 1.69905
14.4332 1.68514
14.4449 1.65197
14.4567 1.62785
14.4684 1.74885
14.4802 1.73601
14.4919 1.67267
14.5037 1.7082
14.5155 1.6837
14.5272 1.67606
14.539 1.692
14.5507 1.7011
14.5625 1.73699
14.5742 1.69728
14.586 1.74802
14.5978 1.72465
14.6095 1.65097
14.6213 1.67039
14.633 1.6826
14.6448 1.72374
14.6565 1.70931
14.6683 1.72166
14.6801 1.7118
14.6918 1.68454
14.7036 1.69711
14.7153 1.72249
14.7271 1.7192
14.7389 1.68052
14.7506 1.67522
14.7624 1.70585
14.7741 1.70407
14.7859 1.73111
14.7977 1.70948
14.8094 1.74933
14.8212 1.70149
14.8329 1.75576
14.8447 1.75069
14.8565 1.7245
14.8682 1.7714
14.88 1.77519
14.8917 1.77765
14.9035 1.80396
14.9153 1.79064
14.927 1.73916
14.9388 1.74482
14.9505 1.72043
14.9623 1.78739
14.9741 1.78742
14.9858 1.76387
14.9976 1.72845
15.0094 1.78205
15.0211 1.73847
15.0329 1.78436
15.0446 1.75617
15.0564 1.84565
15.0682 1.76771
15.0799 1.76382
15.0917 1.72085
15.1035 1.79771
15.1152 1.78038
15.127 1.79073
15.1388 1.82459
15.1505 1.80971
15.1623 1.73515
15.174 1.7566
15.1858 1.7604
15.1976 1.72166
15.2093 1.75314
15.2211 1.79238
15.2329 1.81952
15.2446 1.75263
15.2564 1.70122
15.2682 1.81256
15.2799 1.836
15.2917 1.83673
15.3035 1.85109
15.3152 1.83224
15.327 1.79558
15.3388 1.79146
15.3505 1.79446
15.3623 1.74283
15.3741 1.81583
15.3858 1.8352
15.3976 1.83745
15.4094 1.82624
15.4211 1.91538
15.4329 1.83738
15.4447 1.79089
15.4565 1.83077
15.4682 1.87436
15.48 1.91525
15.4918 1.89215
15.5035 1.84331
15.5153 1.81277
15.5271 1.90486
15.5388 1.87201
15.5506 1.97486
15.5624 1.86043
15.5741 1.86
15.5859 1.76006
15.5977 1.76426
15.6095 1.80209
15.6212 1.86468
15.633 1.7873
15.6448 1.8463
15.6565 1.95934
15.6683 1.85791
15.6801 1.87695
15.6919 1.90234
15.7036 1.9088
15.7154 1.82885
15.7272 1.86372
15.7389 1.96005
15.7507 1.99886
15.7625 1.86765
15.7743 1.83754
15.786 1.87903
15.7978 1.86237
15.8096 1.92367
15.8214 2.01774
15.8331 2.01834
15.8449 2.0037
15.8567 1.98099
15.8685 1.95095
15.8802 1.92566
15.892 1.92062
15.9038 1.84284
15.9156 1.91648
15.9273 1.89655
15.9391 1.83723
15.9509 2.01283
15.9627 1.95801
15.9744 1.93411
15.9862 1.99017
15.998 1.90712
16.0098 1.92589
16.0215 1.86917
16.0333 1.901
16.0451 1.8959
16.0569 1.83572
16.0687 1.8433
16.0804 1.91229
16.0922 1.95194
16.104 1.86266
16.1158 1.81622
16.1275 1.87061
16.1393 2.07766
16.1511 1.99869
16.1629 1.84735
16.1747 1.7665
16.1864 1.8917
16.1982 1.96819
16.21 1.9727
16.2218 1.8647
16.2336 1.88834
16.2453 1.88461
16.2571 1.80242
16.2689 1.75191
16.2807 1.89682
16.2925 1.96422
16.3042 2.05389
16.316 1.87141
16.3278 2.00985
16.3396 1.95071
16.3514 1.81375
16.3631 1.87426
16.3749 1.89834
16.3867 2.09321
16.3985 1.96679
16.4103 1.63418
16.4221 1.86306
16.4338 2.11418
16.4456 1.86794
16.4574 1.8353
16.4692 2.14105
16.481 2.11426
16.4928 1.75976
16.5045 1.80185
16.5163 1.8709
16.5281 1.80685
16.5399 1.97488
16.5517 1.8579
16.5635 1.74846
16.5752 1.79779
16.587 1.6818
16.5988 1.82745
16.6106 1.6333
16.6224 1.68279
16.6342 2.01846
16.646 2.0053
16.6577 1.78824
16.6695 1.49743
16.6813 1.86354