File: examples/data/28ID-2-C-XRD/mid-field-detector/Air-scattering/img.xy
0.828095 72.4406
0.834112 72.3515
0.840129 72.2033
0.846146 72.1284
0.852164 72.0553
0.858181 71.9585
0.864198 71.8611
0.870215 71.7906
0.876233 71.6714
0.88225 71.5325
0.888267 71.4314
0.894284 71.3471
0.900301 71.2108
0.906319 71.163
0.912336 71.0342
0.918353 70.9147
0.92437 70.7663
0.930388 70.6735
0.936405 70.5734
0.942422 70.4536
0.948439 70.3624
0.954457 70.2723
0.960474 70.1842
0.966491 70.0441
0.972508 69.9504
0.978526 69.8659
0.984543 69.7333
0.99056 69.5743
0.996577 69.5259
1.00259 69.4102
1.00861 69.2905
1.01463 69.1912
1.02065 69.099
1.02666 69.0048
1.03268 68.8805
1.0387 68.7867
1.04472 68.7064
1.05073 68.5671
1.05675 68.4805
1.06277 68.3664
1.06878 68.2836
1.0748 68.1756
1.08082 68.0912
1.08684 67.9519
1.09285 67.8538
1.09887 67.742
1.10489 67.6503
1.11091 67.5193
1.11692 67.3696
1.12294 67.2776
1.12896 67.1779
1.13498 67.0915
1.14099 66.9499
1.14701 66.8543
1.15303 66.714
1.15904 66.6185
1.16506 66.5247
1.17108 66.4473
1.1771 66.3735
1.18311 66.2019
1.18913 66.0574
1.19515 65.9827
1.20117 65.8993
1.20718 65.7708
1.2132 65.5982
1.21922 65.4765
1.22524 65.3556
1.23125 65.2517
1.23727 65.1627
1.24329 65.0058
1.24931 64.9117
1.25532 64.8753
1.26134 64.7508
1.26736 64.6238
1.27338 64.5095
1.27939 64.3762
1.28541 64.2759
1.29143 64.1581
1.29744 64.0846
1.30346 63.9907
1.30948 63.8783
1.3155 63.7079
1.32151 63.6027
1.32753 63.5266
1.33355 63.4237
1.33957 63.3304
1.34558 63.2004
1.3516 63.052
1.35762 62.9042
1.36364 62.805
1.36965 62.6975
1.37567 62.5441
1.38169 62.4087
1.38771 62.3478
1.39372 62.2852
1.39974 62.1644
1.40576 62.0733
1.41178 61.9255
1.41779 61.8605
1.42381 61.695
1.42983 61.5557
1.43585 61.46
1.44186 61.3352
1.44788 61.1935
1.4539 61.0777
1.45992 61.0275
1.46593 60.8983
1.47195 60.7166
1.47797 60.5641
1.48399 60.428
1.49 60.3157
1.49602 60.2834
1.50204 60.1893
1.50806 60.0471
1.51407 59.8908
1.52009 59.7684
1.52611 59.6485
1.53213 59.529
1.53814 59.4608
1.54416 59.331
1.55018 59.2367
1.5562 59.1606
1.56222 59.0008
1.56823 58.8354
1.57425 58.7334
1.58027 58.5509
1.58629 58.404
1.5923 58.3158
1.59832 58.2484
1.60434 58.1425
1.61036 57.9878
1.61637 57.9371
1.62239 57.8062
1.62841 57.6156
1.63443 57.4762
1.64044 57.3818
1.64646 57.2406
1.65248 57.1829
1.6585 57.0749
1.66452 56.9407
1.67053 56.7995
1.67655 56.6951
1.68257 56.5784
1.68859 56.4677
1.6946 56.3204
1.70062 56.2277
1.70664 56.1181
1.71266 55.9741
1.71867 55.8449
1.72469 55.7611
1.73071 55.655
1.73673 55.5654
1.74275 55.4366
1.74876 55.2513
1.75478 55.133
1.7608 55.0351
1.76682 54.9188
1.77283 54.7987
1.77885 54.6464
1.78487 54.5564
1.79089 54.4027
1.79691 54.3129
1.80292 54.2252
1.80894 54.1313
1.81496 53.9659
1.82098 53.8106
1.82699 53.6979
1.83301 53.6138
1.83903 53.4795
1.84505 53.358
1.85107 53.2435
1.85708 53.1448
1.8631 53.0121
1.86912 52.9007
1.87514 52.7786
1.88115 52.6061
1.88717 52.4794
1.89319 52.396
1.89921 52.2828
1.90523 52.1441
1.91124 52.0374
1.91726 51.9216
1.92328 51.7973
1.9293 51.6464
1.93532 51.5448
1.94133 51.4345
1.94735 51.2506
1.95337 51.1001
1.95939 51.0086
1.96541 50.8845
1.97142 50.7712
1.97744 50.662
1.98346 50.4981
1.98948 50.3994
1.99549 50.2608
2.00151 50.1247
2.00753 50.0278
2.01355 49.9232
2.01957 49.7779
2.02558 49.6419
2.0316 49.5164
2.03762 49.4066
2.04364 49.3161
2.04966 49.195
2.05567 49.0542
2.06169 48.92
2.06771 48.7861
2.07373 48.6732
2.07975 48.5766
2.08576 48.4867
2.09178 48.3293
2.0978 48.1804
2.10382 48.062
2.10984 47.9722
2.11586 47.8628
2.12187 47.7394
2.12789 47.6116
2.13391 47.5086
2.13993 47.3947
2.14595 47.2939
2.15196 47.1858
2.15798 47.0296
2.164 46.8766
2.17002 46.7556
2.17604 46.6308
2.18205 46.5338
2.18807 46.4156
2.19409 46.2972
2.20011 46.1804
2.20613 46.1036
2.21214 46.0047
2.21816 45.8862
2.22418 45.7339
2.2302 45.6039
2.23622 45.5209
2.24224 45.3758
2.24825 45.2606
2.25427 45.1208
2.26029 45.0034
2.26631 44.8746
2.27233 44.7774
2.27835 44.6868
2.28436 44.5891
2.29038 44.4697
2.2964 44.3537
2.30242 44.2034
2.30844 44.0818
2.31445 43.9708
2.32047 43.8368
2.32649 43.7331
2.33251 43.5886
2.33853 43.4907
2.34455 43.402
2.35056 43.2822
2.35658 43.1913
2.3626 43.1034
2.36862 42.9552
2.37464 42.8389
2.38066 42.7654
2.38667 42.627
2.39269 42.4845
2.39871 42.3399
2.40473 42.2316
2.41075 42.121
2.41677 41.9728
2.42278 41.864
2.4288 41.7524
2.43482 41.6511
2.44084 41.555
2.44686 41.444
2.45288 41.2928
2.45889 41.1664
2.46491 41.0333
2.47093 40.9113
2.47695 40.7483
2.48297 40.637
2.48899 40.5782
2.49501 40.5196
2.50102 40.3679
2.50704 40.2407
2.51306 40.108
2.51908 39.9632
2.5251 39.8686
2.53112 39.7643
2.53714 39.6589
2.54315 39.5131
2.54917 39.4017
2.55519 39.2683
2.56121 39.1253
2.56723 39.0084
2.57325 38.8991
2.57926 38.7503
2.58528 38.6276
2.5913 38.5613
2.59732 38.4769
2.60334 38.3324
2.60936 38.2352
2.61538 38.1036
2.6214 38.0004
2.62741 37.8883
2.63343 37.7624
2.63945 37.6145
2.64547 37.4968
2.65149 37.4202
2.65751 37.275
2.66353 37.1478
2.66954 37.0518
2.67556 36.9268
2.68158 36.7648
2.6876 36.6279
2.69362 36.5224
2.69964 36.3986
2.70566 36.2967
2.71168 36.2159
2.71769 36.0785
2.72371 35.9475
2.72973 35.8475
2.73575 35.7132
2.74177 35.592
2.74779 35.4738
2.75381 35.3482
2.75983 35.2272
2.76584 35.118
2.77186 35.0082
2.77788 34.9076
2.7839 34.8054
2.78992 34.6704
2.79594 34.5426
2.80196 34.4202
2.80798 34.3058
2.81399 34.1829
2.82001 34.0918
2.82603 33.9597
2.83205 33.8468
2.83807 33.7391
2.84409 33.6324
2.85011 33.5192
2.85613 33.4005
2.86215 33.31
2.86816 33.204
2.87418 33.0871
2.8802 33.0005
2.88622 32.8399
2.89224 32.7201
2.89826 32.6036
2.90428 32.5123
2.9103 32.3896
2.91632 32.2691
2.92234 32.1616
2.92835 32.053
2.93437 31.9461
2.94039 31.8296
2.94641 31.7455
2.95243 31.6528
2.95845 31.5486
2.96447 31.4296
2.97049 31.3368
2.97651 31.2046
2.98253 31.1069
2.98854 31.0454
2.99456 30.9329
3.00058 30.7999
3.0066 30.6647
3.01262 30.572
3.01864 30.4723
3.02466 30.3824
3.03068 30.3075
3.0367 30.2432
3.04272 30.149
3.04874 30.0207
3.05476 29.9383
3.06077 29.8389
3.06679 29.7419
3.07281 29.6364
3.07883 29.5159
3.08485 29.4153
3.09087 29.3001
3.09689 29.1948
3.10291 29.1129
3.10893 29.0149
3.11495 28.9094
3.12097 28.805
3.12699 28.6922
3.13301 28.593
3.13902 28.5093
3.14504 28.4294
3.15106 28.3451
3.15708 28.264
3.1631 28.1818
3.16912 28.0922
3.17514 27.9861
3.18116 27.8769
3.18718 27.782
3.1932 27.6726
3.19922 27.6021
3.20524 27.5256
3.21126 27.3998
3.21728 27.2865
3.2233 27.2047
3.22932 27.1258
3.23533 27.0356
3.24135 26.9199
3.24737 26.8465
3.25339 26.7737
3.25941 26.6942
3.26543 26.5764
3.27145 26.4752
3.27747 26.3872
3.28349 26.3223
3.28951 26.2497
3.29553 26.1608
3.30155 26.0759
3.30757 25.9682
3.31359 25.8565
3.31961 25.7852
3.32563 25.6901
3.33165 25.6113
3.33767 25.5307
3.34369 25.4457
3.34971 25.3322
3.35573 25.2561
3.36174 25.1874
3.36776 25.1309
3.37378 25.0162
3.3798 24.9391
3.38582 24.8409
3.39184 24.7643
3.39786 24.6744
3.40388 24.6006
3.4099 24.5184
3.41592 24.4279
3.42194 24.3534
3.42796 24.2738
3.43398 24.1743
3.44 24.0896
3.44602 24.0267
3.45204 23.9735
3.45806 23.8865
3.46408 23.8084
3.4701 23.7171
3.47612 23.6617
3.48214 23.5775
3.48816 23.4913
3.49418 23.4058
3.5002 23.3184
3.50622 23.23
3.51224 23.1634
3.51826 23.115
3.52428 23.0343
3.5303 22.9724
3.53632 22.9299
3.54234 22.8679
3.54836 22.7859
3.55438 22.7037
3.5604 22.6184
3.56642 22.5343
3.57244 22.4554
3.57846 22.3458
3.58448 22.2708
3.5905 22.1727
3.59652 22.1236
3.60254 22.0691
3.60856 21.9897
3.61458 21.9325
3.6206 21.8439
3.62662 21.7574
3.63264 21.6961
3.63866 21.621
3.64468 21.5447
3.6507 21.476
3.65672 21.4083
3.66274 21.3189
3.66876 21.2485
3.67478 21.2008
3.6808 21.131
3.68682 21.0744
3.69284 21.0186
3.69886 20.9531
3.70488 20.871
3.7109 20.7908
3.71692 20.7393
3.72294 20.6534
3.72896 20.5791
3.73498 20.5264
3.741 20.4649
3.74702 20.3967
3.75304 20.3407
3.75906 20.2553
3.76508 20.1965
3.7711 20.1362
3.77712 20.0857
3.78314 20.0444
3.78916 19.959
3.79518 19.905
3.8012 19.8386
3.80722 19.7994
3.81324 19.7196
3.81927 19.6666
3.82529 19.6087
3.83131 19.52
3.83733 19.4529
3.84335 19.3801
3.84937 19.3024
3.85539 19.2429
3.86141 19.1754
3.86743 19.1085
3.87345 19.0574
3.87947 18.9822
3.88549 18.919
3.89151 18.875
3.89753 18.843
3.90355 18.7827
3.90957 18.7187
3.91559 18.6458
3.92161 18.5968
3.92763 18.5332
3.93365 18.4762
3.93967 18.4124
3.9457 18.3468
3.95172 18.2749
3.95774 18.2201
3.96376 18.1833
3.96978 18.1317
3.9758 18.0729
3.98182 18.0155
3.98784 17.9557
3.99386 17.8905
3.99988 17.8259
4.0059 17.7657
4.01192 17.7497
4.01794 17.6963
4.02396 17.6296
4.02999 17.5593
4.03601 17.5009
4.04203 17.4626
4.04805 17.407
4.05407 17.3393
4.06009 17.2801
4.06611 17.2329
4.07213 17.1881
4.07815 17.1455
4.08417 17.0833
4.09019 17.0278
4.09621 16.989
4.10224 16.939
4.10826 16.9058
4.11428 16.8439
4.1203 16.7686
4.12632 16.7078
4.13234 16.6929
4.13836 16.6573
4.14438 16.5822
4.1504 16.5309
4.15642 16.4708
4.16244 16.4303
4.16847 16.3747
4.17449 16.3331
4.18051 16.276
4.18653 16.2236
4.19255 16.1746
4.19857 16.1242
4.20459 16.0904
4.21061 16.0485
4.21663 15.9846
4.22266 15.9264
4.22868 15.8556
4.2347 15.8102
4.24072 15.7856
4.24674 15.7684
4.25276 15.7215
4.25878 15.6829
4.2648 15.6184
4.27082 15.5672
4.27685 15.5471
4.28287 15.513
4.28889 15.5003
4.29491 15.4791
4.30093 15.4382
4.30695 15.4038
4.31297 15.3606
4.319 15.29
4.32502 15.2415
4.33104 15.1767
4.33706 15.1033
4.34308 15.0548
4.3491 15.0067
4.35512 14.9536
4.36114 14.904
4.36717 14.8667
4.37319 14.8181
4.37921 14.7612
4.38523 14.7257
4.39125 14.6839
4.39727 14.6416
4.40329 14.6047
4.40932 14.5811
4.41534 14.5313
4.42136 14.4694
4.42738 14.4233
4.4334 14.4097
4.43942 14.3769
4.44545 14.3291
4.45147 14.2705
4.45749 14.2179
4.46351 14.198
4.46953 14.1698
4.47555 14.1135
4.48158 14.0859
4.4876 14.04
4.49362 13.9913
4.49964 13.9606
4.50566 13.919
4.51168 13.8813
4.51771 13.847
4.52373 13.8114
4.52975 13.7589
4.53577 13.717
4.54179 13.6941
4.54781 13.6623
4.55384 13.5976
4.55986 13.5364
4.56588 13.5191
4.5719 13.4969
4.57792 13.4605
4.58394 13.4162
4.58997 13.3838
4.59599 13.3456
4.60201 13.3226
4.60803 13.2788
4.61405 13.214
4.62008 13.1784
4.6261 13.136
4.63212 13.0975
4.63814 13.0608
4.64416 13.038
4.65019 13.0163
4.65621 12.9823
4.66223 12.9521
4.66825 12.91
4.67427 12.8795
4.6803 12.8293
4.68632 12.7867
4.69234 12.76
4.69836 12.7339
4.70438 12.7044
4.71041 12.6631
4.71643 12.6383
4.72245 12.6156
4.72847 12.5813
4.7345 12.5421
4.74052 12.5084
4.74654 12.4679
4.75256 12.4271
4.75858 12.3945
4.76461 12.3629
4.77063 12.3365
4.77665 12.3161
4.78267 12.2739
4.7887 12.2568
4.79472 12.239
4.80074 12.1979
4.80676 12.1549
4.81278 12.1298
4.81881 12.0902
4.82483 12.0514
4.83085 12.0492
4.83687 12.0006
4.8429 11.9767
4.84892 11.9452
4.85494 11.9114
4.86096 11.8948
4.86699 11.8698
4.87301 11.8275
4.87903 11.8014
4.88505 11.7729
4.89108 11.7207
4.8971 11.7031
4.90312 11.6788
4.90914 11.6365
4.91517 11.6128
4.92119 11.5896
4.92721 11.5634
4.93323 11.5102
4.93926 11.4915
4.94528 11.457
4.9513 11.4261
4.95733 11.4025
4.96335 11.376
4.96937 11.3487
4.97539 11.3331
4.98142 11.3112
4.98744 11.3351
4.99346 11.3039
4.99948 11.2746
5.00551 11.2377
5.01153 11.2003
5.01755 11.1592
5.02358 11.1296
5.0296 11.1239
5.03562 11.1
5.04164 11.0673
5.04767 11.0364
5.05369 11.0069
5.05971 10.9956
5.06574 10.9746
5.07176 10.9801
5.07778 10.9403
5.0838 10.9144
5.08983 10.8999
5.09585 10.8695
5.10187 10.8366
5.1079 10.8291
5.11392 10.8103
5.11994 10.782
5.12597 10.7507
5.13199 10.7284
5.13801 10.7184
5.14403 10.7058
5.15006 10.6867
5.15608 10.6669
5.1621 10.6465
5.16813 10.6094
5.17415 10.5804
5.18017 10.5756
5.1862 10.5727
5.19222 10.5668
5.19824 10.5317
5.20427 10.5019
5.21029 10.4739
5.21631 10.4565
5.22234 10.4091
5.22836 10.3985
5.23438 10.3988
5.24041 10.3706
5.24643 10.3407
5.25245 10.3121
5.25848 10.3159
5.2645 10.3049
5.27052 10.2715
5.27655 10.2587
5.28257 10.2318
5.28859 10.222
5.29462 10.1956
5.30064 10.1781
5.30666 10.1477
5.31269 10.1221
5.31871 10.0987
5.32473 10.0954
5.33076 10.0818
5.33678 10.0675
5.34281 10.039
5.34883 10.0107
5.35485 10.0121
5.36088 9.99885
5.3669 9.97819
5.37292 9.96705
5.37895 9.94543
5.38497 9.91568
5.39099 9.90489
5.39702 9.89463
5.40304 9.87257
5.40907 9.84554
5.41509 9.8097
5.42111 9.79337
5.42714 9.78048
5.43316 9.77488
5.43918 9.76886
5.44521 9.73717
5.45123 9.7254
5.45726 9.72667
5.46328 9.68815
5.4693 9.67421
5.47533 9.65167
5.48135 9.63635
5.48738 9.62726
5.4934 9.60959
5.49942 9.60308
5.50545 9.60045
5.51147 9.58511
5.5175 9.53702
5.52352 9.51351
5.52954 9.50706
5.53557 9.50524
5.54159 9.4605
5.54762 9.46483
5.55364 9.44539
5.55966 9.43393
5.56569 9.4311
5.57171 9.39675
5.57774 9.38229
5.58376 9.37426
5.58979 9.36858
5.59581 9.36284
5.60183 9.33687
5.60786 9.31711
5.61388 9.28724
5.61991 9.28759
5.62593 9.272
5.63195 9.24849
5.63798 9.22592
5.644 9.2163
5.65003 9.2162
5.65605 9.20508
5.66208 9.17245
5.6681 9.14561
5.67413 9.16221
5.68015 9.15464
5.68617 9.14744
5.6922 9.13274
5.69822 9.10487
5.70425 9.10583
5.71027 9.0804
5.7163 9.05163
5.72232 9.03941
5.72835 9.03299
5.73437 9.02098
5.7404 9.02889
5.74642 9.00106
5.75244 8.98079
5.75847 8.97981
5.76449 8.96581
5.77052 8.9467
5.77654 8.9312
5.78257 8.92857
5.78859 8.90116
5.79462 8.90308
5.80064 8.88527
5.80667 8.87473
5.81269 8.85319
5.81872 8.83687
5.82474 8.85339
5.83077 8.83856
5.83679 8.84376
5.84282 8.81191
5.84884 8.78478
5.85487 8.79208
5.86089 8.79068
5.86692 8.76746
5.87294 8.74267
5.87897 8.72974
5.88499 8.70831
5.89102 8.70218
5.89704 8.68756
5.90307 8.693
5.90909 8.67943
5.91512 8.65823
5.92114 8.64021
5.92717 8.62068
5.93319 8.61183
5.93922 8.60277
5.94524 8.59798
5.95127 8.57612
5.95729 8.56814
5.96332 8.57627
5.96934 8.5694
5.97537 8.56048
5.98139 8.55105
5.98742 8.53357
5.99344 8.51854
5.99947 8.50824
6.00549 8.50256
6.01152 8.48305
6.01754 8.4675
6.02357 8.45864
6.02959 8.44357
6.03562 8.43958
6.04165 8.43681
6.04767 8.44215
6.0537 8.44523
6.05972 8.44201
6.06575 8.43486
6.07177 8.43662
6.0778 8.44039
6.08382 8.44378
6.08985 8.40872
6.09587 8.39445
6.1019 8.38758
6.10793 8.37264
6.11395 8.32885
6.11998 8.33836
6.126 8.31742
6.13203 8.31037
6.13805 8.31672
6.14408 8.30869
6.15011 8.29178
6.15613 8.28536
6.16216 8.2545
6.16818 8.2613
6.17421 8.26084
6.18023 8.22899
6.18626 8.23313
6.19229 8.21313
6.19831 8.21905
6.20434 8.20979
6.21036 8.17269
6.21639 8.1439
6.22242 8.13639
6.22844 8.11442
6.23447 8.10057
6.24049 8.09974
6.24652 8.06828
6.25255 8.05714
6.25857 8.04659
6.2646 8.01825
6.27062 8.01758
6.27665 8.00398
6.28268 7.99667
6.2887 7.99098
6.29473 7.97728
6.30075 7.95417
6.30678 7.93844
6.31281 7.91239
6.31883 7.91868
6.32486 7.92427
6.33088 7.92649
6.33691 7.9104
6.34294 7.90379
6.34896 7.88961
6.35499 7.86095
6.36102 7.84682
6.36704 7.82988
6.37307 7.81415
6.3791 7.81796
6.38512 7.82988
6.39115 7.81803
6.39717 7.79694
6.4032 7.78404
6.40923 7.78465
6.41525 7.78307
6.42128 7.75736
6.42731 7.75133
6.43333 7.74503
6.43936 7.7483
6.44539 7.72569
6.45141 7.73749
6.45744 7.71552
6.46347 7.71308
6.46949 7.71627
6.47552 7.67969
6.48155 7.67431
6.48757 7.67738
6.4936 7.66876
6.49963 7.65315
6.50565 7.64029
6.51168 7.60541
6.51771 7.60363
6.52373 7.60178
6.52976 7.61248
6.53579 7.60219
6.54181 7.60351
6.54784 7.60139
6.55387 7.56599
6.55989 7.5542
6.56592 7.55301
6.57195 7.53818
6.57798 7.54398
6.584 7.53894
6.59003 7.51417
6.59606 7.50862
6.60208 7.49621
6.60811 7.48772
6.61414 7.48457
6.62016 7.46226
6.62619 7.46006
6.63222 7.45455
6.63825 7.4587
6.64427 7.43897
6.6503 7.43505
6.65633 7.43639
6.66235 7.42201
6.66838 7.41373
6.67441 7.42358
6.68044 7.42245
6.68646 7.40776
6.69249 7.39922
6.69852 7.40203
6.70455 7.38976
6.71057 7.40453
6.7166 7.36131
6.72263 7.3597
6.72866 7.36489
6.73468 7.37001
6.74071 7.33932
6.74674 7.31651
6.75277 7.30569
6.75879 7.31946
6.76482 7.34432
6.77085 7.32679
6.77688 7.32657
6.7829 7.31835
6.78893 7.30055
6.79496 7.27756
6.80099 7.28423
6.80701 7.27863
6.81304 7.27915
6.81907 7.24558
6.8251 7.25704
6.83112 7.22944
6.83715 7.24754
6.84318 7.22835
6.84921 7.22533
6.85524 7.22318
6.86126 7.22583
6.86729 7.20889
6.87332 7.1684
6.87935 7.18522
6.88538 7.18416
6.8914 7.1867
6.89743 7.17464
6.90346 7.16482
6.90949 7.17777
6.91551 7.17965
6.92154 7.15586
6.92757 7.1582
6.9336 7.16573
6.93963 7.15981
6.94566 7.14369
6.95168 7.1196
6.95771 7.11733
6.96374 7.1287
6.96977 7.10553
6.9758 7.0861
6.98182 7.08462
6.98785 7.08483
6.99388 7.10018
6.99991 7.10192
7.00594 7.08091
7.01197 7.08666
7.01799 7.05802
7.02402 7.05242
7.03005 7.06202
7.03608 7.04547
7.04211 7.02068
7.04814 7.02576
7.05416 7.04329
7.06019 7.0407
7.06622 7.02381
7.07225 7.02081
7.07828 7.03156
7.08431 7.03096
7.09034 7.01476
7.09636 6.99347
7.10239 6.97556
7.10842 6.98128
7.11445 6.96753
7.12048 6.97615
7.12651 6.97118
7.13254 6.96744
7.13856 6.96183
7.14459 6.97098
7.15062 6.95489
7.15665 6.9491
7.16268 6.95643
7.16871 6.93626
7.17474 6.93302
7.18077 6.93667
7.1868 6.95094
7.19282 6.92162
7.19885 6.92826
7.20488 6.91669
7.21091 6.90432
7.21694 6.90892
7.22297 6.87777
7.229 6.87555
7.23503 6.88099
7.24106 6.8719
7.24709 6.88075
7.25311 6.89385
7.25914 6.87225
7.26517 6.8732
7.2712 6.85296
7.27723 6.87124
7.28326 6.86364
7.28929 6.86355
7.29532 6.85062
7.30135 6.84239
7.30738 6.84611
7.31341 6.82847
7.31944 6.81842
7.32547 6.80632
7.33149 6.80426
7.33752 6.80467
7.34355 6.81966
7.34958 6.82591
7.35561 6.82674
7.36164 6.81749
7.36767 6.80025
7.3737 6.78273
7.37973 6.78488
7.38576 6.77485
7.39179 6.77675
7.39782 6.75791
7.40385 6.76757
7.40988 6.75103
7.41591 6.75779
7.42194 6.76768
7.42797 6.76851
7.434 6.77726
7.44003 6.81406
7.44606 6.79481
7.45209 6.79436
7.45812 6.83713
7.46415 6.84553
7.47018 6.85212
7.47621 6.85334
7.48224 6.84104
7.48827 6.84467
7.4943 6.87522
7.50033 6.86389
7.50636 6.84471
7.51239 6.84409
7.51842 6.83255
7.52445 6.83646
7.53048 6.84703
7.53651 6.85223
7.54254 6.84851
7.54857 6.82745
7.5546 6.82226
7.56063 6.81533
7.56666 6.82768
7.57269 6.82617
7.57872 6.81166
7.58475 6.80464
7.59078 6.80375
7.59681 6.78323
7.60284 6.77511
7.60887 6.79158
7.6149 6.79236
7.62093 6.786
7.62696 6.79162
7.63299 6.7778
7.63902 6.76483
7.64505 6.76025
7.65108 6.76698
7.65711 6.75912
7.66314 6.75702
7.66917 6.75318
7.6752 6.75337
7.68123 6.76236
7.68726 6.76137
7.69329 6.7807
7.69933 6.76306
7.70536 6.75905
7.71139 6.73565
7.71742 6.75231
7.72345 6.7584
7.72948 6.73451
7.73551 6.72391
7.74154 6.75895
7.74757 6.81205
7.7536 6.82972
7.75963 6.84807
7.76566 6.85908
7.77169 6.82771
7.77773 6.79382
7.78376 6.7514
7.78979 6.7113
7.79582 6.72077
7.80185 6.70127
7.80788 6.69758
7.81391 6.68858
7.81994 6.69752
7.82597 6.69966
7.832 6.70079
7.83804 6.69241
7.84407 6.7247
7.8501 6.70519
7.85613 6.68098
7.86216 6.64994
7.86819 6.69694
7.87422 6.67224
7.88025 6.67138
7.88629 6.66056
7.89232 6.6468
7.89835 6.63021
7.90438 6.62956
7.91041 6.63597
7.91644 6.65059
7.92247 6.65628
7.92851 6.62615
7.93454 6.6204
7.94057 6.63797
7.9466 6.61172
7.95263 6.58145
7.95866 6.60262
7.96469 6.60093
7.97073 6.6339
7.97676 6.60747
7.98279 6.5986
7.98882 6.60885
7.99485 6.60201
8.00088 6.60153
8.00692 6.59153
8.01295 6.60541
8.01898 6.64188
8.02501 6.62565
8.03104 6.60399
8.03708 6.60139
8.04311 6.58256
8.04914 6.60452
8.05517 6.59621
8.0612 6.59476
8.06724 6.57044
8.07327 6.56873
8.0793 6.58848
8.08533 6.58847
8.09136 6.57701
8.0974 6.5893
8.10343 6.58832
8.10946 6.59123
8.11549 6.56576
8.12152 6.54723
8.12756 6.54425
8.13359 6.56908
8.13962 6.55013
8.14565 6.56475
8.15169 6.56796
8.15772 6.55397
8.16375 6.54687
8.16978 6.55269
8.17581 6.56907
8.18185 6.55959
8.18788 6.56533
8.19391 6.55518
8.19994 6.55415
8.20598 6.57298
8.21201 6.55054
8.21804 6.5392
8.22407 6.52149
8.23011 6.51683
8.23614 6.51215
8.24217 6.5196
8.2482 6.51547
8.25424 6.52239
8.26027 6.53385
8.2663 6.50953
8.27234 6.47344
8.27837 6.49182
8.2844 6.55312
8.29043 6.52779
8.29647 6.48233
8.3025 6.48096
8.30853 6.44713
8.31457 6.48062
8.3206 6.51162
8.32663 6.50949
8.33266 6.45615
8.3387 6.47232
8.34473 6.52672
8.35076 6.50626
8.3568 6.47399
8.36283 6.47434
8.36886 6.45571
8.3749 6.45478
8.38093 6.47083
8.38696 6.50689
8.393 6.49051
8.39903 6.45722
8.40506 6.44569
8.4111 6.46332
8.41713 6.49765
8.42316 6.48304
8.4292 6.4809
8.43523 6.48531
8.44126 6.43763
8.4473 6.44128
8.45333 6.45167
8.45936 6.48651
8.4654 6.4286
8.47143 6.45229
8.47746 6.47012
8.4835 6.44915
8.48953 6.43686
8.49556 6.47028
8.5016 6.43228
8.50763 6.38959
8.51366 6.40553
8.5197 6.42434
8.52573 6.38226
8.53177 6.41254
8.5378 6.51149
8.54383 6.40101
8.54987 6.39063
8.5559 6.34351
8.56193 6.34164
8.56797 6.34126
8.574 6.33758
8.58004 6.37358
8.58607 6.40606
8.5921 6.32724
8.59814 6.3445
8.60417 6.37113
8.61021 6.36566
8.61624 6.34179
8.62227 6.35055
8.62831 6.40728
8.63434 6.40329
8.64038 6.48407
8.64641 6.41032
8.65245 6.39025
8.65848 6.34202
8.66451 6.3912
8.67055 6.42176
8.67658 6.33264
8.68262 6.25465
8.68865 6.26918
8.69469 6.27682
8.70072 6.33134
8.70675 6.31475
8.71279 6.286
8.71882 6.22522
8.72486 6.32949
8.73089 6.35264
8.73693 6.35849
8.74296 6.3484
8.749 6.34215
8.75503 6.32505
8.76107 6.33045
8.7671 6.28943
8.77314 6.40905
8.77917 6.37844
8.7852 6.34263
8.79124 6.28053
8.79727 6.31585
8.80331 6.31732
8.80934 6.22953
8.81538 6.27441
8.82141 6.30266
8.82745 6.1915
8.83348 6.14507
8.83952 6.20173
8.84555 6.1959
8.85159 6.25957
8.85762 6.31355