File: examples/data/28ID-2-C-XRD/mid-field-detector/Kapton-background/img.xy
0.828095 102.962
0.834112 102.219
0.840129 101.654
0.846146 101.031
0.852164 100.376
0.858181 99.7339
0.864198 99.1178
0.870215 98.6371
0.876233 98.1044
0.88225 97.5635
0.888267 97.0447
0.894284 96.509
0.900301 95.9523
0.906319 95.3721
0.912336 94.9017
0.918353 94.4908
0.92437 93.9966
0.930388 93.5923
0.936405 93.2201
0.942422 92.7744
0.948439 92.3479
0.954457 91.9239
0.960474 91.5333
0.966491 91.1018
0.972508 90.706
0.978526 90.3079
0.984543 89.8553
0.99056 89.5046
0.996577 89.2273
1.00259 88.8927
1.00861 88.5524
1.01463 88.2421
1.02065 88.0334
1.02666 87.7267
1.03268 87.456
1.0387 87.2032
1.04472 86.9585
1.05073 86.6572
1.05675 86.4666
1.06277 86.2365
1.06878 86.0025
1.0748 85.7764
1.08082 85.5136
1.08684 85.2881
1.09285 85.0868
1.09887 84.929
1.10489 84.7059
1.11091 84.4836
1.11692 84.3868
1.12294 84.2462
1.12896 84.0672
1.13498 83.894
1.14099 83.8055
1.14701 83.6968
1.15303 83.4975
1.15904 83.4351
1.16506 83.3651
1.17108 83.245
1.1771 83.1337
1.18311 83.0452
1.18913 83.0103
1.19515 82.9179
1.20117 82.7926
1.20718 82.7105
1.2132 82.6932
1.21922 82.6363
1.22524 82.6008
1.23125 82.5635
1.23727 82.5388
1.24329 82.5504
1.24931 82.5929
1.25532 82.6138
1.26134 82.544
1.26736 82.4826
1.27338 82.4552
1.27939 82.5421
1.28541 82.5597
1.29143 82.5453
1.29744 82.5628
1.30346 82.5449
1.30948 82.5081
1.3155 82.5461
1.32151 82.5551
1.32753 82.4768
1.33355 82.4167
1.33957 82.4141
1.34558 82.3058
1.3516 82.1457
1.35762 82.0489
1.36364 82.031
1.36965 81.9335
1.37567 81.7649
1.38169 81.624
1.38771 81.5695
1.39372 81.5214
1.39974 81.4342
1.40576 81.325
1.41178 81.242
1.41779 81.1576
1.42381 81.0606
1.42983 80.9003
1.43585 80.793
1.44186 80.687
1.44788 80.5804
1.4539 80.4452
1.45992 80.3274
1.46593 80.2358
1.47195 80.1088
1.47797 80.0455
1.48399 80.0029
1.49 79.8325
1.49602 79.7424
1.50204 79.6909
1.50806 79.6307
1.51407 79.5436
1.52009 79.4752
1.52611 79.4397
1.53213 79.3208
1.53814 79.2217
1.54416 79.1657
1.55018 79.1124
1.5562 79.0453
1.56222 79.0046
1.56823 79.0161
1.57425 78.9891
1.58027 78.9619
1.58629 78.9302
1.5923 78.9182
1.59832 78.9525
1.60434 78.9948
1.61036 79.0207
1.61637 78.9679
1.62239 78.9302
1.62841 78.9627
1.63443 79.0394
1.64044 79.0832
1.64646 79.0868
1.65248 79.1338
1.6585 79.2051
1.66452 79.2303
1.67053 79.2809
1.67655 79.3975
1.68257 79.4294
1.68859 79.4827
1.6946 79.5566
1.70062 79.6101
1.70664 79.6558
1.71266 79.7604
1.71867 79.8094
1.72469 79.8903
1.73071 79.9906
1.73673 80.0267
1.74275 80.1259
1.74876 80.2307
1.75478 80.3355
1.7608 80.3897
1.76682 80.4372
1.77283 80.5048
1.77885 80.541
1.78487 80.5862
1.79089 80.7121
1.79691 80.8205
1.80292 80.9667
1.80894 81.0203
1.81496 81.0361
1.82098 81.0786
1.82699 81.1566
1.83301 81.3028
1.83903 81.4002
1.84505 81.4488
1.85107 81.5351
1.85708 81.6597
1.8631 81.7851
1.86912 81.8275
1.87514 81.865
1.88115 81.9203
1.88717 82.0582
1.89319 82.1791
1.89921 82.2023
1.90523 82.2537
1.91124 82.3426
1.91726 82.3809
1.92328 82.4536
1.9293 82.4964
1.93532 82.5287
1.94133 82.5998
1.94735 82.712
1.95337 82.7472
1.95939 82.7578
1.96541 82.7498
1.97142 82.7417
1.97744 82.734
1.98346 82.7257
1.98948 82.7291
1.99549 82.6719
2.00151 82.634
2.00753 82.6279
2.01355 82.62
2.01957 82.6158
2.02558 82.5895
2.0316 82.5213
2.03762 82.4918
2.04364 82.3912
2.04966 82.3062
2.05567 82.2574
2.06169 82.2229
2.06771 82.1604
2.07373 82.0743
2.07975 81.9637
2.08576 81.8312
2.09178 81.7678
2.0978 81.6812
2.10382 81.5598
2.10984 81.42
2.11586 81.3121
2.12187 81.1805
2.12789 81.0014
2.13391 80.8562
2.13993 80.704
2.14595 80.532
2.15196 80.4135
2.15798 80.2458
2.164 80.0938
2.17002 79.9162
2.17604 79.7299
2.18205 79.5441
2.18807 79.3233
2.19409 79.138
2.20011 78.9817
2.20613 78.793
2.21214 78.584
2.21816 78.3978
2.22418 78.2056
2.2302 78.0252
2.23622 77.794
2.24224 77.5157
2.24825 77.2877
2.25427 77.0578
2.26029 76.8235
2.26631 76.6091
2.27233 76.3544
2.27835 76.1239
2.28436 75.904
2.29038 75.6334
2.2964 75.3926
2.30242 75.1357
2.30844 74.8934
2.31445 74.6368
2.32047 74.4206
2.32649 74.1846
2.33251 73.9408
2.33853 73.6722
2.34455 73.3922
2.35056 73.1679
2.35658 72.8919
2.3626 72.632
2.36862 72.4068
2.37464 72.1768
2.38066 71.9224
2.38667 71.6942
2.39269 71.4398
2.39871 71.1816
2.40473 70.8966
2.41075 70.6541
2.41677 70.423
2.42278 70.1815
2.4288 69.9973
2.43482 69.8159
2.44084 69.572
2.44686 69.2856
2.45288 69.027
2.45889 68.709
2.46491 68.4056
2.47093 68.1516
2.47695 67.8912
2.48297 67.652
2.48899 67.4564
2.49501 67.25
2.50102 66.9889
2.50704 66.7072
2.51306 66.4055
2.51908 66.1848
2.5251 65.9648
2.53112 65.716
2.53714 65.4594
2.54315 65.2267
2.54917 65.0237
2.55519 64.817
2.56121 64.5301
2.56723 64.2892
2.57325 64.0852
2.57926 63.8785
2.58528 63.6153
2.5913 63.3477
2.59732 63.1228
2.60334 62.9052
2.60936 62.6605
2.61538 62.4109
2.6214 62.1957
2.62741 61.9436
2.63343 61.6995
2.63945 61.4788
2.64547 61.2324
2.65149 60.9893
2.65751 60.7304
2.66353 60.5126
2.66954 60.3027
2.67556 60.0951
2.68158 59.8612
2.6876 59.6365
2.69362 59.4232
2.69964 59.2002
2.70566 58.9423
2.71168 58.7237
2.71769 58.5334
2.72371 58.3374
2.72973 58.1313
2.73575 57.9015
2.74177 57.6923
2.74779 57.4924
2.75381 57.3165
2.75983 57.1105
2.76584 56.9366
2.77186 56.7274
2.77788 56.5126
2.7839 56.3256
2.78992 56.0985
2.79594 55.9036
2.80196 55.7321
2.80798 55.5533
2.81399 55.367
2.82001 55.2042
2.82603 54.9968
2.83205 54.8178
2.83807 54.643
2.84409 54.4466
2.85011 54.2822
2.85613 54.1031
2.86215 53.9253
2.86816 53.7527
2.87418 53.5886
2.8802 53.4425
2.88622 53.2582
2.89224 53.0586
2.89826 52.8952
2.90428 52.7433
2.9103 52.6156
2.91632 52.4659
2.92234 52.3144
2.92835 52.1624
2.93437 52.0222
2.94039 51.8694
2.94641 51.7066
2.95243 51.5594
2.95845 51.4224
2.96447 51.2885
2.97049 51.1221
2.97651 50.9612
2.98253 50.7948
2.98854 50.6282
2.99456 50.4405
3.00058 50.2936
3.0066 50.1407
3.01262 49.9637
3.01864 49.813
3.02466 49.6656
3.03068 49.5308
3.0367 49.3883
3.04272 49.2091
3.04874 49.0712
3.05476 48.8918
3.06077 48.7154
3.06679 48.5462
3.07281 48.3968
3.07883 48.1953
3.08485 48.0274
3.09087 47.8935
3.09689 47.7535
3.10291 47.6107
3.10893 47.4514
3.11495 47.3148
3.12097 47.1078
3.12699 46.8445
3.13301 46.6122
3.13902 46.4108
3.14504 46.2253
3.15106 46.05
3.15708 45.8816
3.1631 45.7116
3.16912 45.5544
3.17514 45.3947
3.18116 45.183
3.18718 45.0156
3.1932 44.8506
3.19922 44.6838
3.20524 44.5068
3.21126 44.3211
3.21728 44.163
3.2233 43.9769
3.22932 43.7881
3.23533 43.5938
3.24135 43.4054
3.24737 43.2481
3.25339 43.1159
3.25941 42.9479
3.26543 42.7751
3.27145 42.6145
3.27747 42.461
3.28349 42.2701
3.28951 42.0865
3.29553 41.8975
3.30155 41.7478
3.30757 41.594
3.31359 41.4707
3.31961 41.4123
3.32563 41.3576
3.33165 41.2155
3.33767 40.8816
3.34369 40.5959
3.34971 40.3961
3.35573 40.226
3.36174 40.0433
3.36776 39.8601
3.37378 39.7009
3.3798 39.5691
3.38582 39.4167
3.39184 39.2573
3.39786 39.0849
3.40388 38.9234
3.4099 38.7822
3.41592 38.6498
3.42194 38.4939
3.42796 38.3599
3.43398 38.2051
3.44 38.0646
3.44602 37.9075
3.45204 37.7626
3.45806 37.6297
3.46408 37.4782
3.4701 37.3129
3.47612 37.1706
3.48214 37.0579
3.48816 36.9114
3.49418 36.7891
3.5002 36.6682
3.50622 36.5401
3.51224 36.3879
3.51826 36.283
3.52428 36.2102
3.5303 36.1191
3.53632 36.0064
3.54234 35.8771
3.54836 35.7327
3.55438 35.6104
3.5604 35.5067
3.56642 35.3909
3.57244 35.2775
3.57846 35.1246
3.58448 34.9873
3.5905 34.851
3.59652 34.728
3.60254 34.5924
3.60856 34.5
3.61458 34.3806
3.6206 34.2667
3.62662 34.1451
3.63264 34.0272
3.63866 33.9122
3.64468 33.8048
3.6507 33.6938
3.65672 33.5999
3.66274 33.4979
3.66876 33.371
3.67478 33.2424
3.6808 33.1165
3.68682 33.0174
3.69284 32.9383
3.69886 32.8322
3.70488 32.7092
3.7109 32.5801
3.71692 32.4851
3.72294 32.3967
3.72896 32.3197
3.73498 32.2167
3.741 32.1261
3.74702 32.0417
3.75304 31.9211
3.75906 31.8241
3.76508 31.7523
3.7711 31.6496
3.77712 31.5604
3.78314 31.4597
3.78916 31.3786
3.79518 31.3018
3.8012 31.1922
3.80722 31.0865
3.81324 31.0106
3.81927 30.9288
3.82529 30.8299
3.83131 30.7511
3.83733 30.6744
3.84335 30.5967
3.84937 30.5188
3.85539 30.4186
3.86141 30.3265
3.86743 30.2351
3.87345 30.139
3.87947 30.0735
3.88549 29.9822
3.89151 29.9075
3.89753 29.8164
3.90355 29.7264
3.90957 29.6422
3.91559 29.5622
3.92161 29.4856
3.92763 29.4011
3.93365 29.36
3.93967 29.2684
3.9457 29.1807
3.95172 29.102
3.95774 29.0318
3.96376 28.9657
3.96978 28.9201
3.9758 28.8488
3.98182 28.7728
3.98784 28.7023
3.99386 28.617
3.99988 28.5446
4.0059 28.4884
4.01192 28.4263
4.01794 28.3582
4.02396 28.3183
4.02999 28.275
4.03601 28.2252
4.04203 28.1385
4.04805 28.0695
4.05407 28.027
4.06009 27.9656
4.06611 27.9008
4.07213 27.8307
4.07815 27.7757
4.08417 27.7351
4.09019 27.7009
4.09621 27.635
4.10224 27.553
4.10826 27.506
4.11428 27.4776
4.1203 27.4171
4.12632 27.3668
4.13234 27.3196
4.13836 27.2723
4.14438 27.2123
4.1504 27.1428
4.15642 27.0975
4.16244 27.0696
4.16847 27.048
4.17449 26.9852
4.18051 26.9161
4.18653 26.8799
4.19255 26.8593
4.19857 26.7759
4.20459 26.7358
4.21061 26.6858
4.21663 26.6178
4.22266 26.5868
4.22868 26.5572
4.2347 26.5412
4.24072 26.498
4.24674 26.4147
4.25276 26.3575
4.25878 26.3161
4.2648 26.2923
4.27082 26.2478
4.27685 26.2198
4.28287 26.2229
4.28889 26.2108
4.29491 26.215
4.30093 26.2094
4.30695 26.1592
4.31297 26.0988
4.319 26.018
4.32502 25.9324
4.33104 25.8612
4.33706 25.7983
4.34308 25.7232
4.3491 25.6635
4.35512 25.6251
4.36114 25.6013
4.36717 25.5369
4.37319 25.4771
4.37921 25.4168
4.38523 25.3819
4.39125 25.3309
4.39727 25.2888
4.40329 25.2512
4.40932 25.1943
4.41534 25.1678
4.42136 25.1064
4.42738 25.054
4.4334 25.0072
4.43942 24.9748
4.44545 24.9106
4.45147 24.8627
4.45749 24.8278
4.46351 24.7913
4.46953 24.7578
4.47555 24.7027
4.48158 24.6661
4.4876 24.6267
4.49362 24.5516
4.49964 24.4941
4.50566 24.4397
4.51168 24.382
4.51771 24.3523
4.52373 24.3235
4.52975 24.2731
4.53577 24.2349
4.54179 24.2462
4.54781 24.2653
4.55384 24.2348
4.55986 24.1706
4.56588 24.106
4.5719 23.9945
4.57792 23.8996
4.58394 23.8354
4.58997 23.7684
4.59599 23.7261
4.60201 23.6767
4.60803 23.6321
4.61405 23.5682
4.62008 23.5238
4.6261 23.4976
4.63212 23.476
4.63814 23.4192
4.64416 23.3614
4.65019 23.328
4.65621 23.2924
4.66223 23.2411
4.66825 23.1935
4.67427 23.1578
4.6803 23.1221
4.68632 23.0807
4.69234 23.0486
4.69836 23.0305
4.70438 22.981
4.71041 22.9369
4.71643 22.9038
4.72245 22.8567
4.72847 22.8021
4.7345 22.7713
4.74052 22.7301
4.74654 22.6907
4.75256 22.6559
4.75858 22.6134
4.76461 22.5894
4.77063 22.5616
4.77665 22.5116
4.78267 22.4841
4.7887 22.4501
4.79472 22.4202
4.80074 22.4139
4.80676 22.3645
4.81278 22.3124
4.81881 22.2677
4.82483 22.2473
4.83085 22.2215
4.83687 22.1697
4.8429 22.1194
4.84892 22.1004
4.85494 22.0699
4.86096 22.0435
4.86699 22.0084
4.87301 21.9759
4.87903 21.9343
4.88505 21.9053
4.89108 21.8721
4.8971 21.8462
4.90312 21.8358
4.90914 21.8295
4.91517 21.7991
4.92119 21.7477
4.92721 21.7331
4.93323 21.7152
4.93926 21.6868
4.94528 21.6615
4.9513 21.6342
4.95733 21.6208
4.96335 21.5808
4.96937 21.5616
4.97539 21.5748
4.98142 21.5851
4.98744 21.604
4.99346 21.5563
4.99948 21.5417
5.00551 21.49
5.01153 21.4573
5.01755 21.4548
5.02358 21.4519
5.0296 21.4249
5.03562 21.4057
5.04164 21.3827
5.04767 21.3714
5.05369 21.3365
5.05971 21.3232
5.06574 21.3034
5.07176 21.3036
5.07778 21.2826
5.0838 21.2659
5.08983 21.2545
5.09585 21.2566
5.10187 21.2136
5.1079 21.2046
5.11392 21.1937
5.11994 21.1794
5.12597 21.1361
5.13199 21.1207
5.13801 21.1062
5.14403 21.0887
5.15006 21.0898
5.15608 21.0465
5.1621 21.0115
5.16813 21.0082
5.17415 20.9956
5.18017 20.9491
5.1862 20.926
5.19222 20.9175
5.19824 20.9051
5.20427 20.8749
5.21029 20.8566
5.21631 20.817
5.22234 20.7612
5.22836 20.7333
5.23438 20.7127
5.24041 20.6872
5.24643 20.6951
5.25245 20.658
5.25848 20.6082
5.2645 20.5892
5.27052 20.5675
5.27655 20.5417
5.28257 20.5078
5.28859 20.4912
5.29462 20.4589
5.30064 20.4385
5.30666 20.4001
5.31269 20.3462
5.31871 20.3248
5.32473 20.3045
5.33076 20.2679
5.33678 20.2485
5.34281 20.2264
5.34883 20.1778
5.35485 20.1222
5.36088 20.0868
5.3669 20.0472
5.37292 20.0247
5.37895 20.006
5.38497 19.9647
5.39099 19.9184
5.39702 19.8782
5.40304 19.8387
5.40907 19.8024
5.41509 19.7644
5.42111 19.7268
5.42714 19.6659
5.43316 19.619
5.43918 19.5785
5.44521 19.5704
5.45123 19.541
5.45726 19.5001
5.46328 19.4639
5.4693 19.4044
5.47533 19.3619
5.48135 19.3449
5.48738 19.339
5.4934 19.2916
5.49942 19.262
5.50545 19.2359
5.51147 19.1945
5.5175 19.1386
5.52352 19.0962
5.52954 19.0743
5.53557 19.0597
5.54159 19.019
5.54762 18.9802
5.55364 18.9347
5.55966 18.9078
5.56569 18.8868
5.57171 18.8584
5.57774 18.8327
5.58376 18.7988
5.58979 18.7721
5.59581 18.7256
5.60183 18.6721
5.60786 18.6521
5.61388 18.6229
5.61991 18.5697
5.62593 18.5638
5.63195 18.5366
5.63798 18.508
5.644 18.5015
5.65003 18.4873
5.65605 18.4599
5.66208 18.4275
5.6681 18.4224
5.67413 18.3747
5.68015 18.3391
5.68617 18.3166
5.6922 18.2838
5.69822 18.2572
5.70425 18.2535
5.71027 18.2463
5.7163 18.225
5.72232 18.1933
5.72835 18.1587
5.73437 18.1254
5.7404 18.1087
5.74642 18.092
5.75244 18.0687
5.75847 18.0483
5.76449 18.0316
5.77052 18.0063
5.77654 17.9734
5.78257 17.9491
5.78859 17.9167
5.79462 17.9061
5.80064 17.8964
5.80667 17.8852
5.81269 17.8655
5.81872 17.8167
5.82474 17.8015
5.83077 17.7896
5.83679 17.7863
5.84282 17.7653
5.84884 17.739
5.85487 17.7279
5.86089 17.6871
5.86692 17.6739
5.87294 17.6544
5.87897 17.6381
5.88499 17.6362
5.89102 17.625
5.89704 17.5968
5.90307 17.5727
5.90909 17.5738
5.91512 17.5625
5.92114 17.55
5.92717 17.5275
5.93319 17.5073
5.93922 17.5152
5.94524 17.4846
5.95127 17.456
5.95729 17.4606
5.96332 17.4541
5.96934 17.456
5.97537 17.4161
5.98139 17.3947
5.98742 17.3832
5.99344 17.3716
5.99947 17.3617
6.00549 17.3343
6.01152 17.3232
6.01754 17.2917
6.02357 17.2829
6.02959 17.2998
6.03562 17.2904
6.04165 17.277
6.04767 17.2744
6.0537 17.2815
6.05972 17.2531
6.06575 17.2412
6.07177 17.2358
6.0778 17.2489
6.08382 17.2553
6.08985 17.2305
6.09587 17.216
6.1019 17.1927
6.10793 17.1857
6.11395 17.1599
6.11998 17.1384
6.126 17.1246
6.13203 17.1036
6.13805 17.0869
6.14408 17.0556
6.15011 17.0319
6.15613 17.0337
6.16216 17.0293
6.16818 17.0078
6.17421 17.011
6.18023 17.0122
6.18626 17.0058
6.19229 16.9808
6.19831 16.9573
6.20434 16.9258
6.21036 16.8931
6.21639 16.8872
6.22242 16.8686
6.22844 16.8621
6.23447 16.8102
6.24049 16.7957
6.24652 16.7823
6.25255 16.7666
6.25857 16.7609
6.2646 16.7556
6.27062 16.7374
6.27665 16.7079
6.28268 16.6883
6.2887 16.665
6.29473 16.6374
6.30075 16.6113
6.30678 16.6096
6.31281 16.6051
6.31883 16.5718
6.32486 16.5911
6.33088 16.5791
6.33691 16.543
6.34294 16.5151
6.34896 16.5047
6.35499 16.5024
6.36102 16.5059
6.36704 16.4961
6.37307 16.4896
6.3791 16.4631
6.38512 16.4493
6.39115 16.4251
6.39717 16.4163
6.4032 16.4045
6.40923 16.4135
6.41525 16.4
6.42128 16.379
6.42731 16.3537
6.43333 16.3413
6.43936 16.3209
6.44539 16.3286
6.45141 16.3083
6.45744 16.2927
6.46347 16.2779
6.46949 16.2711
6.47552 16.2488
6.48155 16.2198
6.48757 16.2232
6.4936 16.216
6.49963 16.2023
6.50565 16.202
6.51168 16.1833
6.51771 16.1749
6.52373 16.1499
6.52976 16.1624
6.53579 16.1279
6.54181 16.1044
6.54784 16.1136
6.55387 16.1158
6.55989 16.1147
6.56592 16.1126
6.57195 16.0824
6.57798 16.0701
6.584 16.0528
6.59003 16.0547
6.59606 16.0468
6.60208 16.0635
6.60811 16.0585
6.61414 16.0258
6.62016 15.9957
6.62619 15.9776
6.63222 15.9738
6.63825 15.9902
6.64427 15.9845
6.6503 15.9759
6.65633 15.9767
6.66235 15.9376
6.66838 15.9265
6.67441 15.9255
6.68044 15.9174
6.68646 15.9206
6.69249 15.9077
6.69852 15.8863
6.70455 15.8848
6.71057 15.8817
6.7166 15.8842
6.72263 15.8819
6.72866 15.8843
6.73468 15.8824
6.74071 15.8593
6.74674 15.8592
6.75277 15.8281
6.75879 15.8239
6.76482 15.8275
6.77085 15.8087
6.77688 15.8234
6.7829 15.8065
6.78893 15.7976
6.79496 15.7907
6.80099 15.7747
6.80701 15.7549
6.81304 15.7386
6.81907 15.7572
6.8251 15.7577
6.83112 15.7321
6.83715 15.7069
6.84318 15.7158
6.84921 15.7031
6.85524 15.6939
6.86126 15.6997
6.86729 15.6831
6.87332 15.6787
6.87935 15.6851
6.88538 15.6799
6.8914 15.6871
6.89743 15.674
6.90346 15.6862
6.90949 15.6852
6.91551 15.6856
6.92154 15.6572
6.92757 15.6598
6.9336 15.6705
6.93963 15.6298
6.94566 15.6094
6.95168 15.618
6.95771 15.6155
6.96374 15.609
6.96977 15.6022
6.9758 15.619
6.98182 15.5979
6.98785 15.5844
6.99388 15.581
6.99991 15.5548
7.00594 15.5484
7.01197 15.562
7.01799 15.5666
7.02402 15.5428
7.03005 15.536
7.03608 15.536
7.04211 15.5258
7.04814 15.5327
7.05416 15.5368
7.06019 15.542
7.06622 15.5299
7.07225 15.5229
7.07828 15.5169
7.08431 15.5162
7.09034 15.5041
7.09636 15.5023
7.10239 15.4952
7.10842 15.4779
7.11445 15.4543
7.12048 15.4467
7.12651 15.4609
7.13254 15.4632
7.13856 15.4612
7.14459 15.4402
7.15062 15.4463
7.15665 15.4476
7.16268 15.4465
7.16871 15.441
7.17474 15.4583
7.18077 15.4658
7.1868 15.4471
7.19282 15.429
7.19885 15.4127
7.20488 15.4065
7.21091 15.3952
7.21694 15.3823
7.22297 15.3579
7.229 15.3814
7.23503 15.357
7.24106 15.3531
7.24709 15.3533
7.25311 15.3649
7.25914 15.361
7.26517 15.3349
7.2712 15.3215
7.27723 15.3024
7.28326 15.3229
7.28929 15.3259
7.29532 15.3047
7.30135 15.2908
7.30738 15.2867
7.31341 15.3086
7.31944 15.3267
7.32547 15.3456
7.33149 15.3294
7.33752 15.298
7.34355 15.2783
7.34958 15.2618
7.35561 15.2625
7.36164 15.2462
7.36767 15.2379
7.3737 15.2331
7.37973 15.2317
7.38576 15.2443
7.39179 15.2613
7.39782 15.2602
7.40385 15.2261
7.40988 15.2178
7.41591 15.2144
7.42194 15.2267
7.42797 15.2142
7.434 15.2152
7.44003 15.2544
7.44606 15.2632
7.45209 15.2698
7.45812 15.2868
7.46415 15.3257
7.47018 15.3259
7.47621 15.3126
7.48224 15.3079
7.48827 15.2913
7.4943 15.276
7.50033 15.3135
7.50636 15.34
7.51239 15.342
7.51842 15.3537
7.52445 15.3279
7.53048 15.2919
7.53651 15.2891
7.54254 15.2868
7.54857 15.3011
7.5546 15.3026
7.56063 15.3003
7.56666 15.3
7.57269 15.3159
7.57872 15.2898
7.58475 15.2797
7.59078 15.2222
7.59681 15.2079
7.60284 15.2281
7.60887 15.1985
7.6149 15.2019
7.62093 15.2239
7.62696 15.2471
7.63299 15.2208
7.63902 15.2062
7.64505 15.2188
7.65108 15.2006
7.65711 15.2185
7.66314 15.208
7.66917 15.2172
7.6752 15.2167
7.68123 15.1898
7.68726 15.1833
7.69329 15.2025
7.69933 15.201
7.70536 15.1893
7.71139 15.1717
7.71742 15.172
7.72345 15.1966
7.72948 15.1847
7.73551 15.2035
7.74154 15.2154
7.74757 15.2314
7.7536 15.262
7.75963 15.308
7.76566 15.3174
7.77169 15.2701
7.77773 15.2289
7.78376 15.1705
7.78979 15.1985
7.79582 15.2079
7.80185 15.1901
7.80788 15.1674
7.81391 15.1364
7.81994 15.1384
7.82597 15.1554
7.832 15.1402
7.83804 15.1525
7.84407 15.1269
7.8501 15.1458
7.85613 15.1184
7.86216 15.1106
7.86819 15.1351
7.87422 15.1003
7.88025 15.0864
7.88629 15.0955
7.89232 15.1028
7.89835 15.1023
7.90438 15.0938
7.91041 15.086
7.91644 15.0582
7.92247 15.0315
7.92851 15.0685
7.93454 15.0933
7.94057 15.1009
7.9466 15.0817
7.95263 15.0803
7.95866 15.0651
7.96469 15.0519
7.97073 15.0312
7.97676 15.0381
7.98279 15.0629
7.98882 15.0525
7.99485 15.0308
8.00088 15.0204
8.00692 15.0779
8.01295 15.0505
8.01898 15.0464
8.02501 15.0628
8.03104 15.0715
8.03708 15.0693
8.04311 15.0324
8.04914 15.0627
8.05517 15.0924
8.0612 15.0983
8.06724 15.0818
8.07327 15.0959
8.0793 15.0842
8.08533 15.0694
8.09136 15.0789
8.0974 15.0684
8.10343 15.0709
8.10946 15.0627
8.11549 15.0444
8.12152 15.037
8.12756 15.014
8.13359 15.0274
8.13962 15.0613
8.14565 15.0684
8.15169 15.0167
8.15772 14.9899
8.16375 15.0421
8.16978 15.0591
8.17581 15.0405
8.18185 15.0669
8.18788 15.0459
8.19391 15.0948
8.19994 15.0836
8.20598 15.0729
8.21201 15.0505
8.21804 15.0207
8.22407 15.0482
8.23011 15.0778
8.23614 15.0701
8.24217 15.0478
8.2482 15.0567
8.25424 15.0638
8.26027 15.0853
8.2663 15.116
8.27234 15.086
8.27837 15.0205
8.2844 15.0578
8.29043 15.0683
8.29647 15.0267
8.3025 15.0483
8.30853 15.0473
8.31457 15.0469
8.3206 15.049
8.32663 15.0261
8.33266 15.0049
8.3387 15.0587
8.34473 15.0546
8.35076 15.0191
8.3568 15.0024
8.36283 15.0339
8.36886 14.9988
8.3749 14.9639
8.38093 14.9974
8.38696 14.9945
8.393 15.0137
8.39903 15.0107
8.40506 15.0224
8.4111 15.0441
8.41713 15.0442
8.42316 14.9867
8.4292 14.9767
8.43523 14.9994
8.44126 14.9996
8.4473 14.9607
8.45333 14.9668
8.45936 14.9797
8.4654 14.981
8.47143 15.0406
8.47746 14.9956
8.4835 14.9684
8.48953 14.9284
8.49556 14.945
8.5016 14.9504
8.50763 14.9168
8.51366 14.889
8.5197 14.9011
8.52573 14.8692
8.53177 14.8392
8.5378 14.8698
8.54383 14.8824
8.54987 14.8767
8.5559 14.8184
8.56193 14.7911
8.56797 14.7788
8.574 14.7886
8.58004 14.8724
8.58607 14.9551
8.5921 14.9031
8.59814 14.776
8.60417 14.8564
8.61021 14.8053
8.61624 14.87
8.62227 14.9352
8.62831 14.9144
8.63434 14.8568
8.64038 14.8459
8.64641 14.7904
8.65245 14.8253
8.65848 14.7965
8.66451 14.7383
8.67055 14.7453
8.67658 14.7565
8.68262 14.6955
8.68865 14.6833
8.69469 14.658
8.70072 14.6446
8.70675 14.6585
8.71279 14.6264
8.71882 14.6186
8.72486 14.6278
8.73089 14.6528
8.73693 14.6057
8.74296 14.733
8.749 14.7187
8.75503 14.6112
8.76107 14.4977
8.7671 14.5738
8.77314 14.5477
8.77917 14.3375
8.7852 14.5724
8.79124 14.7214
8.79727 14.54
8.80331 14.445
8.80934 14.4098
8.81538 14.5158
8.82141 14.456
8.82745 14.3565
8.83348 14.6054
8.83952 14.6182
8.84555 14.6332
8.85159 14.4468
8.85762 14.6017