File: examples/data/28ID-2-C-XRD/far-field-detector/Kapton-background/img.xy
1.07717 15.553
1.08883 15.514
1.10049 15.4269
1.11216 15.3195
1.12382 15.3574
1.13548 15.3875
1.14714 15.3176
1.15881 15.2728
1.17047 15.2445
1.18213 15.121
1.19379 15.1931
1.20546 15.1828
1.21712 15.1014
1.22878 15.1484
1.24044 15.1119
1.25211 15.182
1.26377 15.1387
1.27543 15.1972
1.2871 15.1386
1.29876 15.1269
1.31042 15.1079
1.32208 15.0501
1.33375 15.0427
1.34541 15.0505
1.35707 15.0299
1.36873 14.9989
1.3804 14.9357
1.39206 14.8135
1.40372 14.8278
1.41538 14.829
1.42705 14.8531
1.43871 14.685
1.45037 14.7486
1.46204 14.6588
1.4737 14.6248
1.48536 14.654
1.49702 14.605
1.50869 14.4905
1.52035 14.5498
1.53201 14.49
1.54368 14.457
1.55534 14.434
1.567 14.4409
1.57867 14.4107
1.59033 14.4923
1.60199 14.3897
1.61365 14.479
1.62532 14.4627
1.63698 14.4306
1.64864 14.473
1.66031 14.4102
1.67197 14.527
1.68363 14.5663
1.6953 14.515
1.70696 14.6309
1.71862 14.6094
1.73029 14.6194
1.74195 14.5936
1.75361 14.7083
1.76528 14.7172
1.77694 14.7498
1.7886 14.7875
1.80027 14.7341
1.81193 14.7304
1.82359 14.7527
1.83526 14.792
1.84692 14.8234
1.85858 14.8336
1.87025 14.9329
1.88191 14.9582
1.89357 14.9581
1.90524 14.8886
1.9169 15.0691
1.92856 15.0999
1.94023 15.1243
1.95189 15.1161
1.96355 15.0639
1.97522 15.13
1.98688 15.0642
1.99855 15.044
2.01021 15.0809
2.02187 15.0791
2.03354 14.9798
2.0452 15.0032
2.05686 15.0198
2.06853 15.0365
2.08019 14.948
2.09186 14.9197
2.10352 14.9073
2.11518 14.8356
2.12685 14.8197
2.13851 14.7332
2.15017 14.7127
2.16184 14.6611
2.1735 14.5609
2.18517 14.5104
2.19683 14.5367
2.20849 14.4584
2.22016 14.3348
2.23182 14.2494
2.24349 14.1275
2.25515 14.0899
2.26682 14.0031
2.27848 13.9488
2.29014 13.8574
2.30181 13.73
2.31347 13.6632
2.32514 13.6506
2.3368 13.4447
2.34847 13.339
2.36013 13.3799
2.37179 13.2889
2.38346 13.1725
2.39512 13.116
2.40679 13.0745
2.41845 12.8976
2.43012 12.7753
2.44178 12.6835
2.45345 12.6654
2.46511 12.5469
2.47677 12.4512
2.48844 12.4473
2.5001 12.4035
2.51177 12.3119
2.52343 12.1913
2.5351 12.0697
2.54676 12.0501
2.55843 11.9473
2.57009 11.8317
2.58176 11.8364
2.59342 11.7043
2.60509 11.6325
2.61675 11.5156
2.62842 11.4695
2.64008 11.3923
2.65175 11.3101
2.66341 11.2019
2.67508 11.1396
2.68674 11.1327
2.69841 11.0109
2.71007 10.9333
2.72174 10.8744
2.7334 10.8126
2.74507 10.7106
2.75673 10.6683
2.7684 10.6119
2.78006 10.5303
2.79173 10.4976
2.80339 10.4361
2.81506 10.2861
2.82673 10.2424
2.83839 10.2475
2.85006 10.1836
2.86172 10.1314
2.87339 10.0816
2.88505 10.0679
2.89672 9.94645
2.90838 9.90617
2.92005 9.80951
2.93172 9.77014
2.94338 9.79808
2.95505 9.76383
2.96671 9.68917
2.97838 9.68259
2.99004 9.51786
3.00171 9.43567
3.01338 9.42867
3.02504 9.36215
3.03671 9.32958
3.04837 9.25034
3.06004 9.18352
3.07171 9.11279
3.08337 9.08728
3.09504 9.01383
3.1067 8.9802
3.11837 8.84271
3.13004 8.85058
3.1417 8.76193
3.15337 8.78454
3.16504 8.68973
3.1767 8.57538
3.18837 8.54708
3.20004 8.41499
3.2117 8.38205
3.22337 8.30175
3.23503 8.31206
3.2467 8.31545
3.25837 8.1956
3.27003 8.10876
3.2817 8.02558
3.29337 8.12219
3.30503 8.11717
3.3167 8.30247
3.32837 8.35126
3.34003 7.96279
3.3517 7.73204
3.36337 7.66065
3.37504 7.68771
3.3867 7.6171
3.39837 7.59956
3.41004 7.56325
3.4217 7.46226
3.43337 7.40532
3.44504 7.33296
3.45671 7.31938
3.46837 7.25912
3.48004 7.24642
3.49171 7.21745
3.50337 7.15578
3.51504 7.11994
3.52671 7.13236
3.53838 7.04069
3.55004 6.93607
3.56171 6.94636
3.57338 6.87486
3.58505 6.83543
3.59671 6.82932
3.60838 6.80263
3.62005 6.74048
3.63172 6.77216
3.64339 6.67195
3.65505 6.65551
3.66672 6.58438
3.67839 6.63271
3.69006 6.5326
3.70172 6.49548
3.71339 6.52122
3.72506 6.4502
3.73673 6.42259
3.7484 6.40901
3.76007 6.34339
3.77173 6.32681
3.7834 6.29399
3.79507 6.29711
3.80674 6.22236
3.81841 6.2209
3.83007 6.24527
3.84174 6.25393
3.85341 6.21676
3.86508 6.18233
3.87675 5.99313
3.88842 5.95549
3.90009 6.01715
3.91175 5.95277
3.92342 5.94472
3.93509 5.91546
3.94676 5.89413
3.95843 5.84824
3.9701 5.82933
3.98177 5.80257
3.99344 5.79529
4.00511 5.76011
4.01677 5.69935
4.02844 5.71367
4.04011 5.68222
4.05178 5.68691
4.06345 5.67907
4.07512 5.62809
4.08679 5.65697
4.09846 5.61432
4.11013 5.61636
4.1218 5.56744
4.13347 5.485
4.14514 5.48876
4.15681 5.55249
4.16848 5.43526
4.18015 5.52982
4.19182 5.44413
4.20349 5.44565
4.21515 5.41397
4.22682 5.41415
4.23849 5.38416
4.25016 5.31723
4.26183 5.35227
4.2735 5.35383
4.28517 5.26353
4.29684 5.30007
4.30851 5.32365
4.32018 5.27247
4.33185 5.26716
4.34353 5.28161
4.3552 5.28902
4.36687 5.20041
4.37854 5.16723
4.39021 5.19129
4.40188 5.13128
4.41355 5.13555
4.42522 5.07488
4.43689 5.07482
4.44856 5.06507
4.46023 5.10198
4.4719 5.08035
4.48357 5.09241
4.49524 5.02829
4.50691 5.01448
4.51858 5.03338
4.53026 4.98379
4.54193 4.95587
4.5536 5.01779
4.56527 4.97285
4.57694 4.96493
4.58861 4.91475
4.60028 4.88029
4.61195 4.90597
4.62363 4.87756
4.6353 4.81656
4.64697 4.81833
4.65864 4.83946
4.67031 4.78715
4.68198 4.78682
4.69365 4.77728
4.70533 4.81263
4.717 4.75886
4.72867 4.73442
4.74034 4.74917
4.75201 4.74814
4.76369 4.70241
4.77536 4.74602
4.78703 4.72487
4.7987 4.6689
4.81037 4.705
4.82205 4.68098
4.83372 4.61483
4.84539 4.6417
4.85706 4.64842
4.86874 4.64966
4.88041 4.60372
4.89208 4.54595
4.90375 4.6095
4.91543 4.53528
4.9271 4.57281
4.93877 4.54424
4.95044 4.49775
4.96212 4.52976
4.97379 4.51323
4.98546 4.44413
4.99714 4.52212
5.00881 4.45934
5.02048 4.47614
5.03215 4.48426
5.04383 4.44245
5.0555 4.3978
5.06717 4.47161
5.07885 4.46736
5.09052 4.42154
5.10219 4.43838
5.11387 4.42803
5.12554 4.39517
5.13721 4.34799
5.14889 4.38631
5.16056 4.35258
5.17224 4.37775
5.18391 4.37179
5.19558 4.39868
5.20726 4.36698
5.21893 4.355
5.23061 4.31631
5.24228 4.35364
5.25395 4.28451
5.26563 4.28662
5.2773 4.25787
5.28898 4.27611
5.30065 4.2699
5.31233 4.28547
5.324 4.22993
5.33567 4.23464
5.34735 4.2529
5.35902 4.21994
5.3707 4.22215
5.38237 4.18259
5.39405 4.16634
5.40572 4.14036
5.4174 4.32627
5.42907 4.40948
5.44075 4.33052
5.45242 4.18663
5.4641 4.12159
5.47577 4.13985
5.48745 4.08712
5.49912 4.06809
5.5108 4.02915
5.52247 4.08136
5.53415 4.07545
5.54583 3.99279
5.5575 4.02958
5.56918 3.99948
5.58085 4.01301
5.59253 3.99701
5.6042 3.97246
5.61588 3.9723
5.62756 3.97976
5.63923 3.92743
5.65091 3.89451
5.66258 3.8748
5.67426 3.83961
5.68594 3.8744
5.69761 3.90196
5.70929 3.84563
5.72097 3.88833
5.73264 3.86098
5.74432 3.82462
5.75599 3.79435
5.76767 3.86398
5.77935 3.87755
5.79103 3.83366
5.8027 3.84014
5.81438 3.73545
5.82606 3.80416
5.83773 3.78913
5.84941 3.7768
5.86109 3.73713
5.87276 3.7165
5.88444 3.70219
5.89612 3.7681
5.9078 3.74235
5.91947 3.76083
5.93115 3.73676
5.94283 3.70747
5.95451 3.7477
5.96618 3.68137
5.97786 3.65817
5.98954 3.65316
6.00122 3.65089
6.0129 3.65656
6.02457 3.67604
6.03625 3.63702
6.04793 3.671
6.05961 3.67836
6.07129 3.71638
6.08296 3.74723
6.09464 3.63484
6.10632 3.63953
6.118 3.64868
6.12968 3.64032
6.14136 3.68128
6.15304 3.60483
6.16471 3.62849
6.17639 3.63834
6.18807 3.618
6.19975 3.64117
6.21143 3.58535
6.22311 3.61734
6.23479 3.65396
6.24647 3.61883
6.25815 3.55603
6.26983 3.59984
6.28151 3.64224
6.29319 3.63782
6.30486 3.66993
6.31654 3.64383
6.32822 3.66497
6.3399 3.61104
6.35158 3.61463
6.36326 3.70422
6.37494 3.75796
6.38662 3.65947
6.3983 3.55855
6.40998 3.56804
6.42166 3.57506
6.43334 3.49211
6.44502 3.52851
6.4567 3.6094
6.46839 3.59064
6.48007 3.55867
6.49175 3.59221
6.50343 3.61215
6.51511 3.57205
6.52679 3.55738
6.53847 3.51753
6.55015 3.59321
6.56183 3.5641
6.57351 3.54213
6.58519 3.5639
6.59687 3.54126
6.60856 3.53037
6.62024 3.56186
6.63192 3.54334
6.6436 3.57442
6.65528 3.55926
6.66696 3.58057
6.67865 3.52356
6.69033 3.54005
6.70201 3.54981
6.71369 3.52781
6.72537 3.50743
6.73705 3.52246
6.74874 3.54692
6.76042 3.52733
6.7721 3.55588
6.78378 3.52309
6.79547 3.52872
6.80715 3.51036
6.81883 3.53385
6.83051 3.52307
6.8422 3.52589
6.85388 3.56212
6.86556 3.54962
6.87724 3.52277
6.88893 3.5268
6.90061 3.49957
6.91229 3.47714
6.92398 3.50196
6.93566 3.51312
6.94734 3.51245
6.95903 3.46701
6.97071 3.48202
6.98239 3.51595
6.99408 3.53288
7.00576 3.48494
7.01745 3.44464
7.02913 3.50636
7.04081 3.48353
7.0525 3.47463
7.06418 3.4813
7.07586 3.52902
7.08755 3.52517
7.09923 3.49478
7.11092 3.49572
7.1226 3.45761
7.13429 3.49201
7.14597 3.47718
7.15766 3.44341
7.16934 3.44998
7.18103 3.46882
7.19271 3.44652
7.2044 3.44344
7.21608 3.47868
7.22777 3.45161
7.23945 3.48983
7.25114 3.45398
7.26282 3.45887
7.27451 3.44843
7.28619 3.40398
7.29788 3.47085
7.30956 3.44023
7.32125 3.46443
7.33293 3.45459
7.34462 3.41071
7.35631 3.39753
7.36799 3.42393
7.37968 3.42795
7.39136 3.42436
7.40305 3.45314
7.41474 3.45948
7.42642 3.44282
7.43811 3.43164
7.4498 3.45077
7.46148 3.48158
7.47317 3.40778
7.48486 3.4239
7.49654 3.47382
7.50823 3.45746
7.51992 3.45804
7.5316 3.50763
7.54329 3.45424
7.55498 3.4199
7.56667 3.43182
7.57835 3.45571
7.59004 3.4349
7.60173 3.43525
7.61342 3.45717
7.6251 3.49626
7.63679 3.47478
7.64848 3.48556
7.66017 3.44942
7.67186 3.39767
7.68354 3.41143
7.69523 3.3781
7.70692 3.3896
7.71861 3.35776
7.7303 3.33284
7.74199 3.34623
7.75367 3.28947
7.76536 3.3058
7.77705 3.28844
7.78874 3.34243
7.80043 3.32724
7.81212 3.38647
7.82381 3.34936
7.8355 3.321
7.84719 3.30146
7.85888 3.29886
7.87056 3.32647
7.88225 3.31097
7.89394 3.29477
7.90563 3.30781
7.91732 3.24474
7.92901 3.27595
7.9407 3.24726
7.95239 3.31303
7.96408 3.35446
7.97577 3.28004
7.98746 3.24448
7.99915 3.2769
8.01084 3.24091
8.02253 3.28757
8.03423 3.24975
8.04592 3.2299
8.05761 3.2079
8.0693 3.19809
8.08099 3.18456
8.09268 3.24888
8.10437 3.25727
8.11606 3.19173
8.12775 3.19603
8.13944 3.21054
8.15114 3.23172
8.16283 3.22587
8.17452 3.25683
8.18621 3.23797
8.1979 3.22026
8.20959 3.23252
8.22129 3.17972
8.23298 3.181
8.24467 3.18464
8.25636 3.208
8.26805 3.26657
8.27975 3.27226
8.29144 3.22199
8.30313 3.22967
8.31482 3.27352
8.32652 3.23818
8.33821 3.25601
8.3499 3.21258
8.3616 3.16423
8.37329 3.2248
8.38498 3.24327
8.39668 3.2121
8.40837 3.19148
8.42006 3.19503
8.43176 3.18784
8.44345 3.17703
8.45514 3.18076
8.46684 3.12792
8.47853 3.15024
8.49022 3.17616
8.50192 3.15821
8.51361 3.15873
8.52531 3.15577
8.537 3.12955
8.5487 3.10105
8.56039 3.09386
8.57208 3.1235
8.58378 3.14885
8.59547 3.19102
8.60717 3.16084
8.61886 3.11545
8.63056 3.11713
8.64225 3.08707
8.65395 3.09572
8.66564 3.08427
8.67734 3.02004
8.68904 3.07151
8.70073 3.04848
8.71243 3.01619
8.72412 3.08291
8.73582 3.06912
8.74751 3.10182
8.75921 3.08925
8.77091 3.11338
8.7826 3.09668
8.7943 3.09021
8.80599 3.04553
8.81769 3.06377
8.82939 3.05507
8.84108 3.05793
8.85278 3.02162
8.86448 3.01795
8.87617 3.01452
8.88787 2.98134
8.89957 2.96994
8.91127 2.9674
8.92296 2.95859
8.93466 2.97674
8.94636 3.0225
8.95806 2.98495
8.96975 2.9865
8.98145 2.94893
8.99315 2.94314
9.00485 2.98725
9.01655 3.00344
9.02824 2.95792
9.03994 3.00866
9.05164 2.98784
9.06334 2.99051
9.07504 2.96987
9.08674 2.9283
9.09843 2.97438
9.11013 2.98054
9.12183 2.99422
9.13353 2.93003
9.14523 2.96231
9.15693 2.9504
9.16863 2.98129
9.18033 2.90452
9.19203 2.95636
9.20373 2.93695
9.21543 2.86582
9.22713 2.88553
9.23883 2.90366
9.25053 2.91177
9.26223 2.91654
9.27393 2.93415
9.28563 2.92621
9.29733 2.89535
9.30903 2.96905
9.32073 2.91422
9.33243 2.88683
9.34413 2.89
9.35583 2.90187
9.36753 2.84505
9.37923 2.88279
9.39093 2.91422
9.40263 2.87257
9.41434 2.8824
9.42604 2.94154
9.43774 2.89859
9.44944 2.9331
9.46114 2.85245
9.47284 2.82873
9.48455 2.87978
9.49625 2.89594
9.50795 2.85921
9.51965 2.85719
9.53135 2.81406
9.54306 2.81934
9.55476 2.84267
9.56646 2.86638
9.57816 2.86744
9.58987 2.87473
9.60157 2.85097
9.61327 2.84811
9.62498 2.90965
9.63668 2.90561
9.64838 2.86549
9.66009 2.81436
9.67179 2.83146
9.68349 2.77115
9.6952 2.84087
9.7069 2.81002
9.7186 2.77713
9.73031 2.84754
9.74201 2.83266
9.75372 2.77315
9.76542 2.84135
9.77713 2.83521
9.78883 2.85546
9.80053 2.80711
9.81224 2.8073
9.82394 2.81948
9.83565 2.79281
9.84735 2.77292
9.85906 2.80177
9.87076 2.81418
9.88247 2.75226
9.89418 2.79631
9.90588 2.78463
9.91759 2.81124
9.92929 2.79194
9.941 2.77141
9.9527 2.81177
9.96441 2.7943
9.97612 2.81047
9.98782 2.80892
9.99953 2.83038
10.0112 2.77438
10.0229 2.80907
10.0346 2.70271
10.0464 2.75312
10.0581 2.80261
10.0698 2.74933
10.0815 2.75015
10.0932 2.7761
10.1049 2.7421
10.1166 2.72993
10.1283 2.73941
10.14 2.74916
10.1517 2.78244
10.1634 2.8084
10.1751 2.75751
10.1868 2.71997
10.1986 2.72703
10.2103 2.71106
10.222 2.7528
10.2337 2.75866
10.2454 2.77208
10.2571 2.72483
10.2688 2.75346
10.2805 2.70861
10.2922 2.73736
10.3039 2.75524
10.3156 2.72386
10.3274 2.78245
10.3391 2.71614
10.3508 2.75714
10.3625 2.72941
10.3742 2.77537
10.3859 2.74413
10.3976 2.73487
10.4093 2.74797
10.421 2.7
10.4327 2.70634
10.4445 2.70634
10.4562 2.73718
10.4679 2.71252
10.4796 2.76905
10.4913 2.75679
10.503 2.69768
10.5147 2.76189
10.5264 2.74831
10.5381 2.71513
10.5498 2.71792
10.5616 2.77645
10.5733 2.79076
10.585 2.7698
10.5967 2.70703
10.6084 2.72726
10.6201 2.71591
10.6318 2.76795
10.6435 2.76267
10.6553 2.74314
10.667 2.72692
10.6787 2.71311
10.6904 2.70941
10.7021 2.71654
10.7138 2.74223
10.7255 2.68976
10.7372 2.70482
10.749 2.74411
10.7607 2.70159
10.7724 2.71426
10.7841 2.7361
10.7958 2.71605
10.8075 2.70904
10.8192 2.74303
10.831 2.65717
10.8427 2.72274
10.8544 2.77904
10.8661 2.72337
10.8778 2.74533
10.8895 2.71054
10.9012 2.76507
10.913 2.75593
10.9247 2.70469
10.9364 2.69416
10.9481 2.6833
10.9598 2.69067
10.9715 2.67429
10.9833 2.67806
10.995 2.68738
11.0067 2.68926
11.0184 2.68156
11.0301 2.72555
11.0418 2.73164
11.0535 2.68881
11.0653 2.68567
11.077 2.72485
11.0887 2.68727
11.1004 2.68698
11.1121 2.65381
11.1238 2.67436
11.1356 2.66077
11.1473 2.66957
11.159 2.64909
11.1707 2.66577
11.1824 2.71027
11.1942 2.75952
11.2059 2.7259
11.2176 2.71887
11.2293 2.72164
11.241 2.72987
11.2527 2.67812
11.2645 2.66894
11.2762 2.65864
11.2879 2.73464
11.2996 2.69466
11.3113 2.70217
11.3231 2.65343
11.3348 2.71196
11.3465 2.67091
11.3582 2.68272
11.3699 2.73168
11.3817 2.76938
11.3934 2.69632
11.4051 2.7081
11.4168 2.64314
11.4285 2.67654
11.4403 2.65767
11.452 2.69049
11.4637 2.72767
11.4754 2.6854
11.4871 2.69558
11.4989 2.63274
11.5106 2.70265
11.5223 2.68793
11.534 2.64912
11.5457 2.65992
11.5575 2.67204
11.5692 2.6758
11.5809 2.6538
11.5926 2.68705
11.6043 2.64661
11.6161 2.62637
11.6278 2.65238
11.6395 2.65461
11.6512 2.67839
11.663 2.70328
11.6747 2.69107
11.6864 2.6605
11.6981 2.68231
11.7098 2.65528
11.7216 2.59887
11.7333 2.66277
11.745 2.64738
11.7567 2.66534
11.7685 2.66778
11.7802 2.63348
11.7919 2.62247
11.8036 2.64872
11.8154 2.66924
11.8271 2.61187
11.8388 2.72231
11.8505 2.66735
11.8623 2.58902
11.874 2.60166
11.8857 2.65452
11.8974 2.63919
11.9092 2.69667
11.9209 2.68048
11.9326 2.66063
11.9443 2.64437
11.9561 2.64901
11.9678 2.63659
11.9795 2.63905
11.9912 2.68285
12.003 2.69032
12.0147 2.69688
12.0264 2.67672
12.0381 2.70271
12.0499 2.6863
12.0616 2.65055
12.0733 2.65339
12.0851 2.73745
12.0968 2.71479
12.1085 2.67622
12.1202 2.66282
12.132 2.66486
12.1437 2.66242
12.1554 2.7356
12.1671 2.71124
12.1789 2.67884
12.1906 2.69386
12.2023 2.68615
12.2141 2.6951
12.2258 2.73388
12.2375 2.69514
12.2492 2.70362
12.261 2.76841
12.2727 2.7216
12.2844 2.74791
12.2962 2.71121
12.3079 2.71246
12.3196 2.70831
12.3313 2.74177
12.3431 2.73726
12.3548 2.75326
12.3665 2.70124
12.3783 2.69882
12.39 2.73431
12.4017 2.76828
12.4135 2.7473
12.4252 2.70699
12.4369 2.74318
12.4487 2.738
12.4604 2.76541
12.4721 2.73566
12.4838 2.782
12.4956 2.74107
12.5073 2.7737
12.519 2.7457
12.5308 2.77048
12.5425 2.70749
12.5542 2.74574
12.566 2.78157
12.5777 2.74862
12.5894 2.71287
12.6012 2.75353
12.6129 2.78973
12.6246 2.81634
12.6364 2.75965
12.6481 2.78095
12.6598 2.82332
12.6716 2.75126
12.6833 2.7816
12.695 2.81401
12.7068 2.7812
12.7185 2.77669
12.7302 2.81567
12.742 2.76768
12.7537 2.77184
12.7654 2.82924
12.7772 2.81948
12.7889 2.79548
12.8006 2.78196
12.8124 2.83873
12.8241 2.8185
12.8358 2.8365
12.8476 2.8181
12.8593 2.82136
12.8711 2.80013
12.8828 2.87999
12.8945 2.8681
12.9063 2.80925
12.918 2.8056
12.9297 2.78456
12.9415 2.8331
12.9532 2.86436
12.9649 2.83931
12.9767 2.83593
12.9884 2.86765
13.0002 2.85269
13.0119 2.85705
13.0236 2.84461
13.0354 2.81817
13.0471 2.80327
13.0588 2.87192
13.0706 2.83725
13.0823 2.85586
13.0941 2.86265
13.1058 2.80349
13.1175 2.86151
13.1293 2.87523
13.141 2.83732
13.1528 2.8433
13.1645 2.84012
13.1762 2.90852
13.188 2.88967
13.1997 2.82426
13.2115 2.81892
13.2232 2.85372
13.2349 2.88178
13.2467 2.83443
13.2584 2.81965
13.2702 2.82068
13.2819 2.90662
13.2936 2.92144
13.3054 2.89192
13.3171 2.83455
13.3289 2.88092
13.3406 2.87796
13.3523 2.82804
13.3641 2.81608
13.3758 2.84772
13.3876 2.86569
13.3993 2.8918
13.411 2.87407
13.4228 2.79557
13.4345 2.84405
13.4463 2.83854
13.458 2.87574
13.4698 2.87224
13.4815 2.84871
13.4932 2.84655
13.505 2.89043
13.5167 2.86871
13.5285 2.92125
13.5402 2.85875
13.552 2.868
13.5637 2.96384
13.5755 2.93208
13.5872 2.88394
13.5989 2.85882
13.6107 2.81186
13.6224 2.85336
13.6342 2.78639
13.6459 2.78167
13.6577 2.85208
13.6694 2.85159
13.6812 2.79256
13.6929 2.88347
13.7046 2.8546
13.7164 2.79682
13.7281 2.83103
13.7399 2.85242
13.7516 2.88255
13.7634 2.84928
13.7751 2.80679
13.7869 2.84375
13.7986 2.76824
13.8104 2.82137
13.8221 2.86272
13.8339 2.84532
13.8456 2.79396
13.8574 2.86111
13.8691 2.84404
13.8809 2.81067
13.8926 2.84841
13.9043 2.85107
13.9161 2.818
13.9278 2.8013
13.9396 2.85475
13.9513 2.8228
13.9631 2.79733
13.9748 2.83966
13.9866 2.86717
13.9983 2.83666
14.0101 2.88616
14.0218 2.85132
14.0336 2.86104
14.0453 2.9113
14.0571 2.88203
14.0688 2.80146
14.0806 2.92282
14.0923 2.82584
14.1041 2.90023
14.1158 2.88133
14.1276 2.86015
14.1393 2.88369
14.1511 2.86051
14.1628 2.86369
14.1746 2.84779
14.1864 2.86707
14.1981 2.79878
14.2099 2.90962
14.2216 2.88816
14.2334 2.86963
14.2451 2.85325
14.2569 2.87039
14.2686 2.87642
14.2804 2.89586
14.2921 2.84385
14.3039 2.82096
14.3156 2.84936
14.3274 2.89703
14.3391 2.89657
14.3509 2.8733
14.3626 2.81286
14.3744 2.83802
14.3862 2.92936
14.3979 2.91567
14.4097 2.90344
14.4214 2.87891
14.4332 2.8775
14.4449 2.94216
14.4567 2.79597
14.4684 2.94037
14.4802 2.87664
14.4919 2.86083
14.5037 2.85412
14.5155 2.83716
14.5272 2.83842
14.539 2.92434
14.5507 2.89581
14.5625 2.87494
14.5742 2.82024
14.586 2.83108
14.5978 2.91987
14.6095 2.8841
14.6213 2.85649
14.633 2.88552
14.6448 2.87538
14.6565 2.85329
14.6683 2.88329
14.6801 2.9664
14.6918 2.92737
14.7036 2.90995
14.7153 2.93036
14.7271 2.87017
14.7389 2.81483
14.7506 2.87627
14.7624 2.83909
14.7741 2.98989
14.7859 2.93865
14.7977 2.84566
14.8094 2.90287
14.8212 2.97131
14.8329 2.92169
14.8447 2.88505
14.8565 2.87233
14.8682 2.87942
14.88 2.88909
14.8917 2.95848
14.9035 2.92587
14.9153 2.8578
14.927 2.7682
14.9388 2.93613
14.9505 2.8817
14.9623 2.85613
14.9741 2.87793
14.9858 2.89243
14.9976 2.87303
15.0094 2.91302
15.0211 2.92591
15.0329 2.85138
15.0446 2.81259
15.0564 2.86726
15.0682 2.86919
15.0799 2.92122
15.0917 2.86356
15.1035 2.88983
15.1152 2.84497
15.127 2.91305
15.1388 2.93983
15.1505 2.83522
15.1623 2.79159
15.174 2.89968
15.1858 2.87635
15.1976 2.86431
15.2093 2.88748
15.2211 2.97268
15.2329 2.96486
15.2446 2.88979
15.2564 2.91145
15.2682 2.87798
15.2799 2.85872
15.2917 2.8598
15.3035 2.85488
15.3152 2.81116
15.327 2.83767
15.3388 2.92254
15.3505 2.87504
15.3623 2.96088
15.3741 2.87763
15.3858 2.82309
15.3976 2.89654
15.4094 2.82434
15.4211 2.87822
15.4329 2.94335
15.4447 2.90548
15.4565 2.90189
15.4682 2.89727
15.48 2.84721
15.4918 2.90541
15.5035 2.88096
15.5153 2.94462
15.5271 2.98533
15.5388 3.02961
15.5506 2.97101
15.5624 2.96024
15.5741 2.95521
15.5859 2.97278
15.5977 3.02834
15.6095 3.00285
15.6212 3.08763
15.633 3.08523
15.6448 3.0427
15.6565 3.05275
15.6683 3.06019
15.6801 3.06932
15.6919 3.0111
15.7036 3.03278
15.7154 3.12361
15.7272 3.00543
15.7389 3.03894
15.7507 3.04941
15.7625 3.1961
15.7743 3.10471
15.786 3.10749
15.7978 3.10107
15.8096 3.02773
15.8214 3.09383
15.8331 3.05715
15.8449 2.96517
15.8567 3.06341
15.8685 3.02745
15.8802 3.12723
15.892 3.11902
15.9038 3.10562
15.9156 3.1257
15.9273 3.07462
15.9391 3.08232
15.9509 2.95363
15.9627 3.11274
15.9744 3.11451
15.9862 3.1996
15.998 3.14584
16.0098 3.14274
16.0215 3.01929
16.0333 3.01505
16.0451 3.07692
16.0569 3.14779
16.0687 3.16448
16.0804 3.22161
16.0922 3.03387
16.104 3.08581
16.1158 3.28398
16.1275 3.07818
16.1393 3.15577
16.1511 3.06738
16.1629 3.22104
16.1747 3.27235
16.1864 3.14285
16.1982 3.21217
16.21 3.10878
16.2218 3.07624
16.2336 3.23075
16.2453 3.10365
16.2571 3.28216
16.2689 3.11409
16.2807 3.28727
16.2925 3.42603
16.3042 3.36631
16.316 3.43129
16.3278 3.19229
16.3396 3.50049
16.3514 3.15607
16.3631 3.06414
16.3749 3.04269
16.3867 3.26152
16.3985 3.15277
16.4103 2.91207
16.4221 3.09496
16.4338 3.15424
16.4456 3.15805
16.4574 3.38546
16.4692 3.17662
16.481 2.87083
16.4928 2.89032
16.5045 2.90611
16.5163 2.8562
16.5281 2.69689
16.5399 2.57154
16.5517 3.11731
16.5635 3.03096
16.5752 2.91074
16.587 3.1323
16.5988 3.13969
16.6106 2.59115
16.6224 2.68684
16.6342 3.18904
16.646 3.13782
16.6577 2.8332
16.6695 2.86809
16.6813 2.65817