File: examples/data/28ID-2-C-XRD/mid-field-detector/NIST-LaB6/img.xy
0.828095 117.742
0.834112 117.021
0.840129 116.529
0.846146 115.891
0.852164 115.248
0.858181 114.753
0.864198 114.254
0.870215 113.735
0.876233 113.257
0.88225 112.738
0.888267 112.169
0.894284 111.657
0.900301 111.205
0.906319 110.757
0.912336 110.366
0.918353 109.88
0.92437 109.503
0.930388 109.158
0.936405 108.732
0.942422 108.238
0.948439 107.823
0.954457 107.443
0.960474 107.059
0.966491 106.674
0.972508 106.28
0.978526 105.949
0.984543 105.571
0.99056 105.246
0.996577 104.958
1.00259 104.663
1.00861 104.455
1.01463 104.179
1.02065 103.905
1.02666 103.603
1.03268 103.369
1.0387 103.096
1.04472 102.868
1.05073 102.618
1.05675 102.376
1.06277 102.114
1.06878 101.871
1.0748 101.678
1.08082 101.606
1.08684 101.416
1.09285 101.171
1.09887 101.034
1.10489 100.859
1.11091 100.693
1.11692 100.632
1.12294 100.504
1.12896 100.326
1.13498 100.208
1.14099 100.132
1.14701 100.143
1.15303 100.049
1.15904 99.9762
1.16506 99.9027
1.17108 99.7208
1.1771 99.568
1.18311 99.4784
1.18913 99.465
1.19515 99.4495
1.20117 99.4454
1.20718 99.4003
1.2132 99.4625
1.21922 99.423
1.22524 99.3578
1.23125 99.3737
1.23727 99.3914
1.24329 99.3727
1.24931 99.3926
1.25532 99.453
1.26134 99.4925
1.26736 99.4596
1.27338 99.4531
1.27939 99.4806
1.28541 99.4149
1.29143 99.3431
1.29744 99.3689
1.30346 99.382
1.30948 99.4067
1.3155 99.3857
1.32151 99.3348
1.32753 99.3158
1.33355 99.3403
1.33957 99.2872
1.34558 99.2009
1.3516 99.0485
1.35762 98.9578
1.36364 98.835
1.36965 98.6759
1.37567 98.5412
1.38169 98.444
1.38771 98.4198
1.39372 98.3448
1.39974 98.2083
1.40576 98.0979
1.41178 98.0085
1.41779 97.8522
1.42381 97.7202
1.42983 97.5749
1.43585 97.4184
1.44186 97.2587
1.44788 97.1089
1.4539 96.976
1.45992 96.8932
1.46593 96.7034
1.47195 96.5564
1.47797 96.4204
1.48399 96.2212
1.49 96.026
1.49602 95.9568
1.50204 95.8436
1.50806 95.7338
1.51407 95.609
1.52009 95.5047
1.52611 95.3839
1.53213 95.26
1.53814 95.1109
1.54416 94.9868
1.55018 94.9107
1.5562 94.7748
1.56222 94.6534
1.56823 94.6057
1.57425 94.4608
1.58027 94.3819
1.58629 94.3405
1.5923 94.285
1.59832 94.1809
1.60434 94.0515
1.61036 93.9456
1.61637 93.8555
1.62239 93.7255
1.62841 93.6782
1.63443 93.6534
1.64044 93.6533
1.64646 93.6156
1.65248 93.5486
1.6585 93.5134
1.66452 93.4659
1.67053 93.4444
1.67655 93.4107
1.68257 93.368
1.68859 93.3739
1.6946 93.2949
1.70062 93.2576
1.70664 93.2427
1.71266 93.2076
1.71867 93.1435
1.72469 93.1258
1.73071 93.1473
1.73673 93.1919
1.74275 93.1285
1.74876 93.0367
1.75478 93.0434
1.7608 93.0566
1.76682 93.1043
1.77283 93.0462
1.77885 92.9048
1.78487 92.911
1.79089 92.9502
1.79691 92.9744
1.80292 92.949
1.80894 92.9108
1.81496 92.9085
1.82098 92.8966
1.82699 92.9415
1.83301 92.9666
1.83903 92.9141
1.84505 92.8701
1.85107 92.8752
1.85708 92.8787
1.8631 92.8758
1.86912 92.844
1.87514 92.822
1.88115 92.8241
1.88717 92.7496
1.89319 92.7185
1.89921 92.753
1.90523 92.7476
1.91124 92.7884
1.91726 92.776
1.92328 92.7935
1.9293 92.7702
1.93532 92.6882
1.94133 92.657
1.94735 92.6409
1.95337 92.5533
1.95939 92.5362
1.96541 92.4779
1.97142 92.4541
1.97744 92.4214
1.98346 92.3233
1.98948 92.2641
1.99549 92.193
2.00151 92.1299
2.00753 92.0889
2.01355 92.0437
2.01957 91.9979
2.02558 91.9656
2.0316 91.8958
2.03762 91.8429
2.04364 91.8262
2.04966 91.7597
2.05567 91.6539
2.06169 91.54
2.06771 91.4358
2.07373 91.3548
2.07975 91.3098
2.08576 91.2565
2.09178 91.1721
2.0978 91.0774
2.10382 91.0194
2.10984 90.905
2.11586 90.8263
2.12187 90.7594
2.12789 90.6455
2.13391 90.5042
2.13993 90.3749
2.14595 90.2582
2.15196 90.1551
2.15798 90.0896
2.164 90.0278
2.17002 89.9043
2.17604 89.7643
2.18205 89.631
2.18807 89.5446
2.19409 89.4324
2.20011 89.3166
2.20613 89.2288
2.21214 89.0855
2.21816 88.9749
2.22418 88.8449
2.2302 88.7344
2.23622 88.6399
2.24224 88.4888
2.24825 88.3431
2.25427 88.2181
2.26029 88.1002
2.26631 87.9743
2.27233 87.8655
2.27835 87.7805
2.28436 87.717
2.29038 87.6214
2.2964 87.4869
2.30242 87.3657
2.30844 87.2417
2.31445 87.1279
2.32047 87.0436
2.32649 86.9955
2.33251 86.9455
2.33853 86.8658
2.34455 86.7439
2.35056 86.6998
2.35658 86.6702
2.3626 86.6773
2.36862 86.6167
2.37464 86.6061
2.38066 86.706
2.38667 86.7831
2.39269 86.8653
2.39871 87.0112
2.40473 87.2527
2.41075 87.6304
2.41677 88.1076
2.42278 88.8355
2.4288 89.9412
2.43482 91.5815
2.44084 94.1198
2.44686 98.202
2.45288 104.954
2.45889 117.543
2.46491 142.847
2.47093 199.875
2.47695 346.425
2.48297 717.121
2.48899 1407.9
2.49501 2084.92
2.50102 2257.09
2.50704 1835.91
2.51306 1126.42
2.51908 556.555
2.5251 279.233
2.53112 172.404
2.53714 129.372
2.54315 109.523
2.54917 99.3304
2.55519 93.431
2.56121 89.8197
2.56723 87.4458
2.57325 85.8938
2.57926 84.7193
2.58528 83.7947
2.5913 83.07
2.59732 82.4646
2.60334 81.9661
2.60936 81.549
2.61538 81.1497
2.6214 80.7877
2.62741 80.4731
2.63343 80.2075
2.63945 79.9362
2.64547 79.7237
2.65149 79.4919
2.65751 79.2608
2.66353 79.0238
2.66954 78.827
2.67556 78.5805
2.68158 78.3622
2.6876 78.2043
2.69362 78.0268
2.69964 77.8599
2.70566 77.7166
2.71168 77.5847
2.71769 77.3787
2.72371 77.229
2.72973 77.0946
2.73575 76.9962
2.74177 76.8914
2.74779 76.7328
2.75381 76.5668
2.75983 76.345
2.76584 76.1699
2.77186 75.9799
2.77788 75.8448
2.7839 75.7478
2.78992 75.5866
2.79594 75.4344
2.80196 75.2909
2.80798 75.146
2.81399 75.019
2.82001 74.9129
2.82603 74.8139
2.83205 74.6795
2.83807 74.5001
2.84409 74.3774
2.85011 74.2415
2.85613 74.0813
2.86215 73.9454
2.86816 73.8481
2.87418 73.7204
2.8802 73.6135
2.88622 73.4984
2.89224 73.3647
2.89826 73.2596
2.90428 73.1597
2.9103 73.0487
2.91632 72.9695
2.92234 72.8568
2.92835 72.7392
2.93437 72.5881
2.94039 72.4653
2.94641 72.3913
2.95243 72.3
2.95845 72.1844
2.96447 72.0876
2.97049 71.9598
2.97651 71.8421
2.98253 71.7675
2.98854 71.6664
2.99456 71.5264
3.00058 71.4244
3.0066 71.3001
3.01262 71.192
3.01864 71.0954
3.02466 70.9613
3.03068 70.8563
3.0367 70.7492
3.04272 70.6373
3.04874 70.5134
3.05476 70.3994
3.06077 70.2697
3.06679 70.1184
3.07281 70.0109
3.07883 69.8772
3.08485 69.7373
3.09087 69.597
3.09689 69.5083
3.10291 69.4134
3.10893 69.3038
3.11495 69.1682
3.12097 69.0322
3.12699 68.928
3.13301 68.8172
3.13902 68.6991
3.14504 68.575
3.15106 68.4553
3.15708 68.3231
3.1631 68.209
3.16912 68.0443
3.17514 67.8885
3.18116 67.7926
3.18718 67.6738
3.1932 67.5692
3.19922 67.4831
3.20524 67.3656
3.21126 67.2586
3.21728 67.1197
3.2233 66.9949
3.22932 66.896
3.23533 66.7828
3.24135 66.6577
3.24737 66.5322
3.25339 66.428
3.25941 66.3453
3.26543 66.2518
3.27145 66.1438
3.27747 66.0641
3.28349 65.9684
3.28951 65.8718
3.29553 65.7778
3.30155 65.6815
3.30757 65.5635
3.31359 65.4859
3.31961 65.3769
3.32563 65.3129
3.33165 65.2954
3.33767 65.2424
3.34369 65.1645
3.34971 65.1431
3.35573 65.153
3.36174 65.1079
3.36776 65.0712
3.37378 65.0221
3.3798 65.0277
3.38582 65.1003
3.39184 65.195
3.39786 65.2702
3.40388 65.3627
3.4099 65.529
3.41592 65.721
3.42194 65.977
3.42796 66.2667
3.43398 66.6931
3.44 67.27
3.44602 67.976
3.45204 68.9385
3.45806 70.3125
3.46408 72.2251
3.4701 75.1381
3.47612 79.5055
3.48214 86.361
3.48816 97.5765
3.49418 117.731
3.5002 156.96
3.50622 243.452
3.51224 463.679
3.51826 1040.89
3.52428 2191.21
3.5303 3455.34
3.53632 3878.34
3.54234 3325.38
3.54836 2117.42
3.55438 1037.82
3.5604 464.562
3.56642 241.172
3.57244 153.812
3.57846 114.453
3.58448 94.4861
3.5905 83.2513
3.59652 76.4049
3.60254 72.0747
3.60856 69.1023
3.61458 67.0209
3.6206 65.5105
3.62662 64.3237
3.63264 63.4307
3.63866 62.6747
3.64468 62.0561
3.6507 61.5103
3.65672 61.0656
3.66274 60.6593
3.66876 60.3096
3.67478 59.9887
3.6808 59.6844
3.68682 59.4385
3.69284 59.2296
3.69886 59.009
3.70488 58.8112
3.7109 58.6145
3.71692 58.4212
3.72294 58.2504
3.72896 58.0455
3.73498 57.839
3.741 57.6676
3.74702 57.533
3.75304 57.4029
3.75906 57.2474
3.76508 57.0904
3.7711 56.9748
3.77712 56.8779
3.78314 56.7337
3.78916 56.6149
3.79518 56.5163
3.8012 56.4037
3.80722 56.2648
3.81324 56.1319
3.81927 56.0384
3.82529 55.9223
3.83131 55.8257
3.83733 55.7226
3.84335 55.6082
3.84937 55.5158
3.85539 55.4116
3.86141 55.32
3.86743 55.2455
3.87345 55.1347
3.87947 55.021
3.88549 54.9511
3.89151 54.8355
3.89753 54.7766
3.90355 54.687
3.90957 54.6297
3.91559 54.5485
3.92161 54.4613
3.92763 54.3634
3.93365 54.2609
3.93967 54.2164
3.9457 54.1613
3.95172 54.0581
3.95774 53.9852
3.96376 53.9317
3.96978 53.8655
3.9758 53.7924
3.98182 53.7571
3.98784 53.6981
3.99386 53.6253
3.99988 53.5555
4.0059 53.5132
4.01192 53.487
4.01794 53.4389
4.02396 53.3632
4.02999 53.3165
4.03601 53.2849
4.04203 53.3215
4.04805 53.3356
4.05407 53.3084
4.06009 53.2455
4.06611 53.1498
4.07213 53.0398
4.07815 52.9593
4.08417 52.8903
4.09019 52.8478
4.09621 52.8419
4.10224 52.8018
4.10826 52.7866
4.11428 52.76
4.1203 52.7513
4.12632 52.7347
4.13234 52.7193
4.13836 52.7158
4.14438 52.7163
4.1504 52.7053
4.15642 52.6964
4.16244 52.6988
4.16847 52.7063
4.17449 52.7116
4.18051 52.7287
4.18653 52.7649
4.19255 52.8002
4.19857 52.8752
4.20459 52.9362
4.21061 53.0145
4.21663 53.1256
4.22266 53.3038
4.22868 53.5436
4.2347 53.778
4.24072 54.0972
4.24674 54.547
4.25276 55.1428
4.25878 55.9993
4.2648 57.2685
4.27082 59.1843
4.27685 62.1679
4.28287 67.0226
4.28889 75.478
4.29491 92.0179
4.30093 127.599
4.30695 215.748
4.31297 448.957
4.319 944.561
4.32502 1522.87
4.33104 1732.87
4.33706 1545.25
4.34308 1039.87
4.3491 541.83
4.35512 257.276
4.36114 141.449
4.36717 96.6388
4.37319 77.1738
4.37921 67.3468
4.38523 61.8352
4.39125 58.4632
4.39727 56.3245
4.40329 54.9587
4.40932 54.0023
4.41534 53.3117
4.42136 52.74
4.42738 52.303
4.4334 51.9494
4.43942 51.6779
4.44545 51.4339
4.45147 51.2086
4.45749 51.0378
4.46351 50.8974
4.46953 50.7404
4.47555 50.609
4.48158 50.5159
4.4876 50.4244
4.49362 50.3181
4.49964 50.2281
4.50566 50.1428
4.51168 50.0269
4.51771 49.9548
4.52373 49.8926
4.52975 49.8241
4.53577 49.7482
4.54179 49.6797
4.54781 49.5894
4.55384 49.5015
4.55986 49.4299
4.56588 49.3573
4.5719 49.3136
4.57792 49.253
4.58394 49.1958
4.58997 49.1606
4.59599 49.1009
4.60201 49.0611
4.60803 49.0157
4.61405 48.9589
4.62008 48.9033
4.6261 48.8719
4.63212 48.8305
4.63814 48.7768
4.64416 48.7352
4.65019 48.7172
4.65621 48.693
4.66223 48.6519
4.66825 48.608
4.67427 48.5873
4.6803 48.5778
4.68632 48.5377
4.69234 48.5119
4.69836 48.4814
4.70438 48.4414
4.71041 48.3919
4.71643 48.3644
4.72245 48.34
4.72847 48.3117
4.7345 48.2991
4.74052 48.2565
4.74654 48.2491
4.75256 48.2279
4.75858 48.2205
4.76461 48.1954
4.77063 48.177
4.77665 48.159
4.78267 48.1431
4.7887 48.1405
4.79472 48.1304
4.80074 48.1435
4.80676 48.1423
4.81278 48.1212
4.81881 48.1117
4.82483 48.106
4.83085 48.1493
4.83687 48.1823
4.8429 48.1941
4.84892 48.2362
4.85494 48.2764
4.86096 48.2947
4.86699 48.3138
4.87301 48.3394
4.87903 48.3728
4.88505 48.4185
4.89108 48.4873
4.8971 48.5996
4.90312 48.7183
4.90914 48.878
4.91517 49.0642
4.92119 49.3284
4.92721 49.7242
4.93323 50.3128
4.93926 51.1465
4.94528 52.4009
4.9513 54.3973
4.95733 57.7677
4.96335 64.0544
4.96937 77.0933
4.97539 107.247
4.98142 187.325
4.98744 383.118
4.99346 698.906
4.99948 892.12
5.00551 869.679
5.01153 662.156
5.01755 393.974
5.02358 203.03
5.0296 112.898
5.03562 78.4654
5.04164 64.3285
5.04767 57.7279
5.05369 54.1837
5.05971 52.161
5.06574 50.9224
5.07176 50.1019
5.07778 49.5785
5.0838 49.225
5.08983 48.9702
5.09585 48.7407
5.10187 48.555
5.1079 48.4201
5.11392 48.3265
5.11994 48.2198
5.12597 48.1114
5.13199 48.0233
5.13801 47.9527
5.14403 47.9165
5.15006 47.8527
5.15608 47.7865
5.1621 47.7511
5.16813 47.7126
5.17415 47.6801
5.18017 47.65
5.1862 47.6093
5.19222 47.5925
5.19824 47.6
5.20427 47.569
5.21029 47.5434
5.21631 47.5305
5.22234 47.5064
5.22836 47.4743
5.23438 47.4719
5.24041 47.4766
5.24643 47.4744
5.25245 47.4414
5.25848 47.4046
5.2645 47.4063
5.27052 47.3951
5.27655 47.4161
5.28257 47.4177
5.28859 47.386
5.29462 47.391
5.30064 47.3911
5.30666 47.3713
5.31269 47.367
5.31871 47.3776
5.32473 47.3847
5.33076 47.3843
5.33678 47.3856
5.34281 47.4336
5.34883 47.4589
5.35485 47.4741
5.36088 47.4669
5.3669 47.4652
5.37292 47.472
5.37895 47.4745
5.38497 47.4879
5.39099 47.5245
5.39702 47.541
5.40304 47.5794
5.40907 47.5951
5.41509 47.6004
5.42111 47.6164
5.42714 47.701
5.43316 47.8028
5.43918 47.8858
5.44521 47.9298
5.45123 48.0052
5.45726 48.1075
5.46328 48.2336
5.4693 48.3517
5.47533 48.486
5.48135 48.7107
5.48738 48.9791
5.4934 49.2929
5.49942 49.695
5.50545 50.1719
5.51147 50.7831
5.5175 51.6448
5.52352 52.9181
5.52954 54.7818
5.53557 57.5565
5.54159 61.8926
5.54762 69.0342
5.55364 82.0366
5.55966 108.251
5.56569 167.844
5.57171 324.281
5.57774 734.67
5.58376 1453.34
5.58979 1942.36
5.59581 1939.18
5.60183 1513.34
5.60786 910.144
5.61388 446.966
5.61991 213.796
5.62593 124.082
5.63195 87.9509
5.63798 71.2654
5.644 62.5113
5.65003 57.4906
5.65605 54.4261
5.66208 52.4251
5.6681 51.0908
5.67413 50.1659
5.68015 49.485
5.68617 48.9496
5.6922 48.5393
5.69822 48.1744
5.70425 47.8759
5.71027 47.6355
5.7163 47.4157
5.72232 47.2283
5.72835 47.0936
5.73437 46.9759
5.7404 46.8592
5.74642 46.7394
5.75244 46.6131
5.75847 46.5148
5.76449 46.444
5.77052 46.3679
5.77654 46.294
5.78257 46.2167
5.78859 46.1589
5.79462 46.1318
5.80064 46.1039
5.80667 46.0715
5.81269 46.0187
5.81872 45.9535
5.82474 45.9128
5.83077 45.9046
5.83679 45.8713
5.84282 45.8312
5.84884 45.7953
5.85487 45.787
5.86089 45.7516
5.86692 45.7198
5.87294 45.6952
5.87897 45.674
5.88499 45.6803
5.89102 45.6696
5.89704 45.6645
5.90307 45.6634
5.90909 45.6546
5.91512 45.6604
5.92114 45.6246
5.92717 45.6212
5.93319 45.6519
5.93922 45.6901
5.94524 45.7104
5.95127 45.6926
5.95729 45.7067
5.96332 45.7261
5.96934 45.7917
5.97537 45.8239
5.98139 45.8627
5.98742 45.931
5.99344 45.9762
5.99947 46.0299
6.00549 46.1236
6.01152 46.2197
6.01754 46.3146
6.02357 46.4229
6.02959 46.5806
6.03562 46.8151
6.04165 47.127
6.04767 47.5197
6.0537 48.0402
6.05972 48.7617
6.06575 49.9054
6.07177 51.6102
6.0778 54.2661
6.08382 58.8603
6.08985 67.4338
6.09587 85.2909
6.1019 127.472
6.10793 241.849
6.11395 521.951
6.11998 895.96
6.126 1061.59
6.13203 994.816
6.13805 737.291
6.14408 431.28
6.15011 217.092
6.15613 117.753
6.16216 79.9705
6.16818 64.2155
6.17421 56.7003
6.18023 52.6556
6.18626 50.2947
6.19229 48.9028
6.19831 47.97
6.20434 47.2953
6.21036 46.8605
6.21639 46.5074
6.22242 46.2306
6.22844 46.0003
6.23447 45.8051
6.24049 45.6491
6.24652 45.5212
6.25255 45.4001
6.25857 45.299
6.2646 45.2117
6.27062 45.1275
6.27665 45.0653
6.28268 45.0308
6.2887 45.0087
6.29473 44.9388
6.30075 44.8596
6.30678 44.8079
6.31281 44.7917
6.31883 44.7738
6.32486 44.7225
6.33088 44.6799
6.33691 44.6456
6.34294 44.6217
6.34896 44.586
6.35499 44.542
6.36102 44.5342
6.36704 44.5278
6.37307 44.5019
6.3791 44.4736
6.38512 44.4619
6.39115 44.4467
6.39717 44.4483
6.4032 44.4041
6.40923 44.3625
6.41525 44.3411
6.42128 44.3311
6.42731 44.3294
6.43333 44.302
6.43936 44.3122
6.44539 44.3103
6.45141 44.3157
6.45744 44.2938
6.46347 44.2874
6.46949 44.2776
6.47552 44.2402
6.48155 44.2014
6.48757 44.1846
6.4936 44.2045
6.49963 44.2025
6.50565 44.1801
6.51168 44.1801
6.51771 44.1549
6.52373 44.1397
6.52976 44.1591
6.53579 44.1607
6.54181 44.1576
6.54784 44.1387
6.55387 44.1375
6.55989 44.1449
6.56592 44.1142
6.57195 44.1347
6.57798 44.1352
6.584 44.1362
6.59003 44.1125
6.59606 44.1043
6.60208 44.1231
6.60811 44.1255
6.61414 44.1286
6.62016 44.1371
6.62619 44.1346
6.63222 44.1352
6.63825 44.1133
6.64427 44.1012
6.6503 44.113
6.65633 44.1086
6.66235 44.1178
6.66838 44.1345
6.67441 44.1419
6.68044 44.1465
6.68646 44.1467
6.69249 44.1299
6.69852 44.1484
6.70455 44.173
6.71057 44.1895
6.7166 44.2034
6.72263 44.2205
6.72866 44.2217
6.73468 44.212
6.74071 44.1894
6.74674 44.1863
6.75277 44.1981
6.75879 44.2016
6.76482 44.2267
6.77085 44.2621
6.77688 44.2736
6.7829 44.2689
6.78893 44.3022
6.79496 44.3145
6.80099 44.3134
6.80701 44.3136
6.81304 44.2775
6.81907 44.2774
6.8251 44.2743
6.83112 44.3219
6.83715 44.34
6.84318 44.3649
6.84921 44.4132
6.85524 44.4156
6.86126 44.4
6.86729 44.411
6.87332 44.4524
6.87935 44.4893
6.88538 44.5305
6.8914 44.5435
6.89743 44.5549
6.90346 44.5609
6.90949 44.5754
6.91551 44.5956
6.92154 44.6509
6.92757 44.7115
6.9336 44.7545
6.93963 44.7692
6.94566 44.8038
6.95168 44.8682
6.95771 44.9095
6.96374 44.9664
6.96977 45.0369
6.9758 45.0983
6.98182 45.1975
6.98785 45.3436
6.99388 45.4962
6.99991 45.6795
7.00594 45.9397
7.01197 46.3402
7.01799 46.9108
7.02402 47.7634
7.03005 49.1773
7.03608 51.7835
7.04211 57.0007
7.04814 68.8056
7.05416 99.488
7.06019 181.298
7.06622 320.929
7.07225 419.726
7.07828 431.741
7.08431 373.069
7.09034 263.09
7.09636 156.961
7.10239 92.3734
7.10842 65.6809
7.11445 55.3799
7.12048 50.8867
7.12651 48.744
7.13254 47.5493
7.13856 46.8104
7.14459 46.3606
7.15062 46.0718
7.15665 45.8641
7.16268 45.7369
7.16871 45.6566
7.17474 45.6091
7.18077 45.5513
7.1868 45.5209
7.19282 45.4546
7.19885 45.4439
7.20488 45.4552
7.21091 45.4524
7.21694 45.4597
7.22297 45.4556
7.229 45.4331
7.23503 45.447
7.24106 45.4606
7.24709 45.4673
7.25311 45.4824
7.25914 45.5149
7.26517 45.5589
7.2712 45.552
7.27723 45.5204
7.28326 45.5754
7.28929 45.5765
7.29532 45.6199
7.30135 45.6644
7.30738 45.6981
7.31341 45.7209
7.31944 45.7543
7.32547 45.8411
7.33149 45.9256
7.33752 45.9582
7.34355 45.9933
7.34958 46.0725
7.35561 46.1491
7.36164 46.228
7.36767 46.3312
7.3737 46.4212
7.37973 46.552
7.38576 46.6701
7.39179 46.866
7.39782 47.0533
7.40385 47.2477
7.40988 47.5204
7.41591 47.8283
7.42194 48.2272
7.42797 48.7827
7.434 49.4832
7.44003 50.5162
7.44606 52.0042
7.45209 54.2104
7.45812 57.8849
7.46415 64.484
7.47018 77.221
7.47621 105.295
7.48224 176.259
7.48827 367.427
7.4943 731.035
7.50033 1062.47
7.50636 1157.87
7.51239 1052.44
7.51842 771.868
7.52445 451.764
7.53048 227.319
7.53651 123.295
7.54254 83.3787
7.54857 66.7232
7.5546 58.749
7.56063 54.4628
7.56666 52.0186
7.57269 50.4525
7.57872 49.4014
7.58475 48.7156
7.59078 48.2213
7.59681 47.9028
7.60284 47.5954
7.60887 47.3725
7.6149 47.2321
7.62093 47.0439
7.62696 46.9217
7.63299 46.8082
7.63902 46.7147
7.64505 46.6338
7.65108 46.5696
7.65711 46.4963
7.66314 46.3904
7.66917 46.3788
7.6752 46.3604
7.68123 46.3352
7.68726 46.3291
7.69329 46.3189
7.69933 46.2942
7.70536 46.2757
7.71139 46.2638
7.71742 46.2476
7.72345 46.2499
7.72948 46.262
7.73551 46.27
7.74154 46.284
7.74757 46.3266
7.7536 46.4241
7.75963 46.5084
7.76566 46.5462
7.77169 46.5579
7.77773 46.5692
7.78376 46.6234
7.78979 46.6728
7.79582 46.7453
7.80185 46.8695
7.80788 46.9606
7.81391 47.1275
7.81994 47.3295
7.82597 47.5505
7.832 47.8523
7.83804 48.2806
7.84407 48.9075
7.8501 49.7995
7.85613 51.2007
7.86216 53.401
7.86819 57.1845
7.87422 64.2782
7.88025 79.338
7.88629 115.926
7.89232 213.08
7.89835 418.172
7.90438 665.2
7.91041 804.149
7.91644 790.216
7.92247 642.4
7.92851 422.469
7.93454 233.394
7.94057 126.831
7.9466 82.6237
7.95263 65.0173
7.95866 57.0787
7.96469 53.0351
7.97073 50.8123
7.97676 49.4701
7.98279 48.5502
7.98882 47.968
7.99485 47.5494
8.00088 47.2213
8.00692 46.9613
8.01295 46.7301
8.01898 46.5922
8.02501 46.4908
8.03104 46.3779
8.03708 46.293
8.04311 46.1872
8.04914 46.1206
8.05517 46.0741
8.0612 46.0083
8.06724 45.9489
8.07327 45.9029
8.0793 45.9434
8.08533 45.9438
8.09136 45.922
8.0974 45.9087
8.10343 45.8624
8.10946 45.8157
8.11549 45.8402
8.12152 45.8503
8.12756 45.8632
8.13359 45.8406
8.13962 45.7787
8.14565 45.7919
8.15169 45.8355
8.15772 45.8319
8.16375 45.826
8.16978 45.8703
8.17581 45.8949
8.18185 45.9533
8.18788 46.0446
8.19391 46.104
8.19994 46.2642
8.20598 46.421
8.21201 46.5243
8.21804 46.7396
8.22407 47.0329
8.23011 47.3689
8.23614 47.8829
8.24217 48.7519
8.2482 50.0841
8.25424 52.3849
8.26027 56.6675
8.2663 65.4539
8.27234 86.834
8.27837 142.271
8.2844 256.695
8.29043 402.538
8.29647 503.9
8.3025 514.763
8.30853 441.963
8.31457 315.001
8.3206 191.99
8.32663 112.47
8.33266 75.2171
8.3387 60.2426
8.34473 53.7702
8.35076 50.6381
8.3568 48.9695
8.36283 48.0207
8.36886 47.3606
8.3749 46.9006
8.38093 46.5825
8.38696 46.3525
8.393 46.2272
8.39903 46.1046
8.40506 45.9503
8.4111 45.7768
8.41713 45.7092
8.42316 45.6744
8.4292 45.5905
8.43523 45.5471
8.44126 45.5539
8.4473 45.5871
8.45333 45.4598
8.45936 45.4267
8.4654 45.4028
8.47143 45.3793
8.47746 45.4079
8.4835 45.4231
8.48953 45.4304
8.49556 45.3794
8.5016 45.2653
8.50763 45.2861
8.51366 45.2962
8.5197 45.2798
8.52573 45.2822
8.53177 45.2901
8.5378 45.3165
8.54383 45.2829
8.54987 45.1797
8.5559 45.0748
8.56193 45.2171
8.56797 45.167
8.574 45.1764
8.58004 45.1684
8.58607 45.1974
8.5921 45.2171
8.59814 45.4235
8.60417 45.7131
8.61021 45.7535
8.61624 45.8736
8.62227 46.234
8.62831 46.6919
8.63434 47.5248
8.64038 49.5642
8.64641 54.31
8.65245 66.0163
8.65848 87.2791
8.66451 110.721
8.67055 123.76
8.67658 122.089
8.68262 107.276
8.68865 85.1646
8.69469 65.996
8.70072 54.2838
8.70675 49.2871
8.71279 46.9089
8.71882 46.0393
8.72486 45.6651
8.73089 45.4309
8.73693 45.2508
8.74296 45.1438
8.749 45.1205
8.75503 45.0686
8.76107 44.972
8.7671 44.8301
8.77314 44.8171
8.77917 45.0124
8.7852 44.9331
8.79124 45.001
8.79727 44.9801
8.80331 44.9752
8.80934 45.236
8.81538 45.247
8.82141 45.0025
8.82745 44.923
8.83348 45.127
8.83952 45.1089
8.84555 45.2495
8.85159 45.3322
8.85762 45.6317